Units are: observed wavelength (Ang), observed flux (10^-15 erg/s/cm^2/Ang)
       3600.0000      0.23603492
       3601.9498      0.23461473
       3603.8997      0.23855229
       3605.8496      0.23900757
       3607.7994      0.26369238
       3609.7493      0.27948089
       3611.6991      0.27334230
       3613.6490      0.23842471
       3615.5988      0.23502510
       3617.5488      0.25290804
       3619.4987      0.25724459
       3621.4485      0.27115751
       3623.3984      0.27097548
       3625.3482      0.26140552
       3627.2981      0.24344078
       3629.2479      0.23538597
       3631.1978      0.26974306
       3633.1476      0.25993829
       3635.0975      0.25183745
       3637.0474      0.25830503
       3638.9972      0.27115644
       3640.9471      0.26948236
       3642.8969      0.27334147
       3644.8468      0.25226560
       3646.7966      0.25222254
       3648.7465      0.26746135
       3650.6964      0.26007388
       3652.6462      0.26861702
       3654.5961      0.29250956
       3656.5459      0.29838443
       3658.4958      0.29471913
       3660.4456      0.27566045
       3662.3955      0.28081518
       3664.3454      0.31560116
       3666.2953      0.31713577
       3668.2452      0.30263954
       3670.1950      0.30035007
       3672.1449      0.31027336
       3674.0947      0.31830187
       3676.0446      0.32659383
       3677.9945      0.33299918
       3679.9443      0.33800214
       3681.8942      0.34190584
       3683.8440      0.34566427
       3685.7939      0.34956227
       3687.7437      0.37206195
       3689.6936      0.38547051
       3691.6435      0.39430142
       3693.5933      0.37725566
       3695.5432      0.35149651
       3697.4930      0.35373407
       3699.4429      0.36030691
       3701.3927      0.36796713
       3703.3426      0.38794566
       3705.2924      0.39898883
       3707.2423      0.40161349
       3709.1922      0.38670435
       3711.1420      0.37547503
       3713.0919      0.38220869
       3715.0417      0.37957741
       3716.9917      0.36408284
       3718.9415      0.37322202
       3720.8914      0.37661889
       3722.8413      0.37813328
       3724.7911      0.37969177
       3726.7410      0.36607996
       3728.6908      0.37680164
       3730.6407      0.38549004
       3732.5905      0.35572010
       3734.5404      0.33825532
       3736.4903      0.36256891
       3738.4401      0.36934624
       3740.3900      0.36331664
       3742.3398      0.37612877
       3744.2897      0.39360538
       3746.2395      0.37730258
       3748.1894      0.34299598
       3750.1393      0.34767590
       3752.0891      0.34266692
       3754.0390      0.32456274
       3755.9888      0.33111556
       3757.9387      0.32962444
       3759.8885      0.32202144
       3761.8384      0.32865122
       3763.7883      0.32997523
       3765.7382      0.31790948
       3767.6881      0.30321884
       3769.6379      0.29891940
       3771.5878      0.30901318
       3773.5376      0.29914127
       3775.4875      0.26958919
       3777.4374      0.28274899
       3779.3872      0.31736930
       3781.3371      0.28576198
       3783.2869      0.25431512
       3785.2368      0.27020750
       3787.1866      0.27871614
       3789.1365      0.25134447
       3791.0863      0.24002989
       3793.0362      0.25033122
       3794.9861      0.25301223
       3796.9359      0.24721136
       3798.8858      0.22519226
       3800.8356      0.20930815
       3802.7855      0.21936946
       3804.7353      0.22070933
       3806.6852      0.20410035
       3808.6351      0.18769989
       3810.5849      0.18796695
       3812.5348      0.18594639
       3814.4846      0.17761796
       3816.4346      0.18451958
       3818.3844      0.18404169
       3820.3343      0.18650421
       3822.2842      0.17513769
       3824.2340      0.16266344
       3826.1839      0.15855537
       3828.1337      0.16100729
       3830.0836      0.16622737
       3832.0334      0.17077108
       3833.9833      0.16799327
       3835.9332      0.18088421
       3837.8830      0.18661277
       3839.8329      0.17642665
       3841.7827      0.18389174
       3843.7326      0.19961808
       3845.6824      0.20342508
       3847.6323      0.19080559
       3849.5822      0.19357982
       3851.5320      0.22233096
       3853.4819      0.23292945
       3855.4317      0.25126920
       3857.3816      0.26702740
       3859.3314      0.26977308
       3861.2813      0.26892045
       3863.2312      0.28379193
       3865.1811      0.30810934
       3867.1310      0.30325852
       3869.0808      0.29923582
       3871.0307      0.32953422
       3872.9805      0.34999872
       3874.9304      0.36055237
       3876.8802      0.36830197
       3878.8301      0.37027922
       3880.7800      0.38485094
       3882.7298      0.40413153
       3884.6797      0.43324405
       3886.6295      0.45361081
       3888.5794      0.44561889
       3890.5292      0.45909525
       3892.4791      0.48725453
       3894.4290      0.50031493
       3896.3788      0.50491889
       3898.3287      0.52331601
       3900.2785      0.53363617
       3902.2284      0.53770929
       3904.1782      0.55773737
       3906.1281      0.56257469
       3908.0780      0.57758501
       3910.0278      0.57941629
       3911.9777      0.57453413
       3913.9275      0.60031385
       3915.8775      0.62832345
       3917.8273      0.65756921
       3919.7772      0.67154321
       3921.7271      0.66929953
       3923.6769      0.67643437
       3925.6268      0.69010381
       3927.5766      0.69520953
       3929.5265      0.70712501
       3931.4763      0.70684709
       3933.4262      0.69284813
       3935.3761      0.71639585
       3937.3259      0.74380105
       3939.2758      0.76237441
       3941.2256      0.77253497
       3943.1755      0.76592617
       3945.1253      0.77338209
       3947.0752      0.79289801
       3949.0251      0.79120085
       3950.9749      0.78861029
       3952.9248      0.78623449
       3954.8746      0.78310633
       3956.8245      0.80207349
       3958.7743      0.82810241
       3960.7242      0.85312673
       3962.6740      0.86246033
       3964.6240      0.84180205
       3966.5739      0.84453489
       3968.5237      0.86818553
       3970.4736      0.86760845
       3972.4234      0.86373645
       3974.3733      0.87785921
       3976.3231      0.89436417
       3978.2730      0.90119821
       3980.2229      0.88256225
       3982.1727      0.88883821
       3984.1226      0.87981417
       3986.0724      0.85421981
       3988.0223      0.84964897
       3989.9721      0.87216045
       3991.9220      0.86975481
       3993.8719      0.86545221
       3995.8217      0.87639933
       3997.7716      0.89332353
       3999.7214      0.88713017
       4001.6713      0.86391509
       4003.6211      0.86472017
       4005.5710      0.88571989
       4007.5209      0.87918665
       4009.4707      0.86819573
       4011.4206      0.87047577
       4013.3704      0.87113745
       4015.3204      0.87904093
       4017.2702      0.86964817
       4019.2201      0.85349581
       4021.1700      0.86905441
       4023.1198      0.84418773
       4025.0697      0.81703225
       4027.0195      0.82021161
       4028.9694      0.82693901
       4030.9192      0.84379997
       4032.8691      0.85189209
       4034.8190      0.84870921
       4036.7688      0.84392605
       4038.7187      0.83263533
       4040.6685      0.82743465
       4042.6184      0.83763869
       4044.5682      0.84569025
       4046.5181      0.85699653
       4048.4679      0.86311305
       4050.4178      0.84612417
       4052.3677      0.82195901
       4054.3175      0.81415329
       4056.2674      0.80803473
       4058.2172      0.80988989
       4060.1671      0.80464849
       4062.1169      0.79905245
       4064.0668      0.79147005
       4066.0168      0.79425117
       4067.9666      0.79434101
       4069.9165      0.77318181
       4071.8663      0.76130045
       4073.8162      0.74306881
       4075.7660      0.74116573
       4077.7159      0.74295669
       4079.6658      0.72853081
       4081.6156      0.70553189
       4083.5655      0.68407321
       4085.5153      0.69736277
       4087.4652      0.71161853
       4089.4150      0.70540621
       4091.3649      0.68580985
       4093.3148      0.68016169
       4095.2646      0.67461053
       4097.2145      0.67454005
       4099.1643      0.67733709
       4101.1142      0.65478201
       4103.0640      0.61775453
       4105.0139      0.61715801
       4106.9638      0.62369361
       4108.9136      0.61727249
       4110.8635      0.62107801
       4112.8133      0.59724413
       4114.7633      0.56137477
       4116.7131      0.57035633
       4118.6630      0.57897273
       4120.6129      0.57122413
       4122.5627      0.57982789
       4124.5126      0.56766853
       4126.4624      0.55185257
       4128.4123      0.54736053
       4130.3621      0.53696529
       4132.3120      0.52874949
       4134.2618      0.52005789
       4136.2117      0.50660541
       4138.1616      0.50754477
       4140.1114      0.51480285
       4142.0613      0.51336053
       4144.0111      0.50477105
       4145.9610      0.49100377
       4147.9108      0.46621805
       4149.8607      0.45445425
       4151.8106      0.45533077
       4153.7604      0.44235193
       4155.7103      0.42163401
       4157.6601      0.43487177
       4159.6100      0.43607585
       4161.5598      0.42193053
       4163.5097      0.41415597
       4165.4597      0.41346065
       4167.4095      0.40214881
       4169.3594      0.39215813
       4171.3092      0.39179287
       4173.2591      0.38923565
       4175.2089      0.38422289
       4177.1588      0.36707142
       4179.1087      0.35661007
       4181.0585      0.36030593
       4183.0084      0.37710467
       4184.9582      0.38683584
       4186.9081      0.38781052
       4188.8579      0.39894276
       4190.8078      0.40363281
       4192.7577      0.39178553
       4194.7075      0.38889051
       4196.6574      0.39227009
       4198.6072      0.38710063
       4200.5571      0.38705731
       4202.5069      0.39020429
       4204.4568      0.40368061
       4206.4066      0.41245733
       4208.3565      0.42209865
       4210.3064      0.43585849
       4212.2562      0.45163569
       4214.2062      0.45414857
       4216.1560      0.45191689
       4218.1059      0.43850061
       4220.0557      0.42840285
       4222.0056      0.42678149
       4223.9555      0.42070033
       4225.9053      0.43660409
       4227.8552      0.45014649
       4229.8050      0.45744833
       4231.7549      0.47577641
       4233.7047      0.48690925
       4235.6546      0.48551585
       4237.6045      0.47011709
       4239.5543      0.45915413
       4241.5042      0.45272849
       4243.4540      0.45699809
       4245.4039      0.47090645
       4247.3537      0.47031373
       4249.3036      0.46065937
       4251.2535      0.46298789
       4253.2033      0.47642885
       4255.1532      0.46754561
       4257.1030      0.46265045
       4259.0529      0.47785269
       4261.0027      0.47695789
       4262.9526      0.46548565
       4264.9026      0.46493473
       4266.8524      0.47697793
       4268.8023      0.47523357
       4270.7521      0.46660593
       4272.7020      0.48191869
       4274.6518      0.49486905
       4276.6017      0.48308065
       4278.5516      0.48660409
       4280.5014      0.48013765
       4282.4513      0.46304133
       4284.4011      0.48472873
       4286.3510      0.49835921
       4288.3008      0.49444577
       4290.2507      0.49211457
       4292.2005      0.47762489
       4294.1504      0.47109737
       4296.1003      0.47505589
       4298.0501      0.48654869
       4300.0000      0.49275457
       4301.9498      0.49721729
       4303.8997      0.49915657
       4305.8495      0.48927249
       4307.7994      0.47990849
       4309.7493      0.48691645
       4311.6991      0.49768321
       4313.6491      0.48735961
       4315.5989      0.49166641
       4317.5488      0.50615541
       4319.4986      0.50095377
       4321.4485      0.48902021
       4323.3984      0.48797629
       4325.3482      0.49275761
       4327.2981      0.50283689
       4329.2479      0.52418997
       4331.1978      0.52993537
       4333.1476      0.52655937
       4335.0975      0.52159921
       4337.0474      0.53463585
       4338.9972      0.52058173
       4340.9471      0.50941497
       4342.8969      0.51475649
       4344.8468      0.53362533
       4346.7966      0.54474213
       4348.7465      0.53949997
       4350.6964      0.54068241
       4352.6462      0.53972733
       4354.5961      0.53121573
       4356.5459      0.53699933
       4358.4958      0.54949093
       4360.4456      0.55618329
       4362.3955      0.56032669
       4364.3455      0.54574253
       4366.2953      0.54552061
       4368.2452      0.56201889
       4370.1950      0.56153929
       4372.1449      0.56257365
       4374.0947      0.56930009
       4376.0446      0.55693813
       4377.9944      0.55040581
       4379.9443      0.54115249
       4381.8942      0.53749401
       4383.8440      0.53564017
       4385.7939      0.54506273
       4387.7437      0.54428225
       4389.6936      0.54052269
       4391.6434      0.51937277
       4393.5933      0.51681745
       4395.5432      0.51763713
       4397.4930      0.50924945
       4399.4429      0.50730749
       4401.3927      0.51109001
       4403.3426      0.50389433
       4405.2924      0.49448885
       4407.2423      0.48711329
       4409.1922      0.48280353
       4411.1420      0.49106149
       4413.0920      0.49396241
       4415.0418      0.48655913
       4416.9917      0.48104201
       4418.9415      0.47136757
       4420.8914      0.47167293
       4422.8413      0.46752353
       4424.7911      0.46945001
       4426.7410      0.46720549
       4428.6908      0.46548145
       4430.6407      0.46983873
       4432.5905      0.47289877
       4434.5404      0.48626289
       4436.4903      0.49940345
       4438.4401      0.49300045
       4440.3900      0.48313021
       4442.3398      0.48892701
       4444.2897      0.48544017
       4446.2395      0.48747293
       4448.1894      0.49594621
       4450.1393      0.48527833
       4452.0891      0.48901329
       4454.0390      0.51760501
       4455.9888      0.51890773
       4457.9387      0.51689749
       4459.8885      0.53010517
       4461.8384      0.53615117
       4463.7883      0.53741889
       4465.7382      0.54587557
       4467.6881      0.55041193
       4469.6379      0.56967241
       4471.5878      0.59514953
       4473.5376      0.59621729
       4475.4875      0.60050681
       4477.4373      0.61641197
       4479.3872      0.62466433
       4481.3371      0.63984149
       4483.2869      0.64844825
       4485.2368      0.64210425
       4487.1866      0.65549093
       4489.1365      0.69210877
       4491.0863      0.70475977
       4493.0362      0.71802169
       4494.9861      0.73862081
       4496.9359      0.75025733
       4498.8858      0.75850177
       4500.8356      0.76655281
       4502.7855      0.77834237
       4504.7353      0.80182973
       4506.6852      0.83208685
       4508.6351      0.84699745
       4510.5849      0.84677565
       4512.5349      0.86715529
       4514.4847      0.88120309
       4516.4346      0.88733217
       4518.3844      0.90191241
       4520.3343      0.90996133
       4522.2842      0.91003897
       4524.2340      0.93322353
       4526.1839      0.96015989
       4528.1337      0.99054529
       4530.0836      0.97532577
       4532.0334      0.97230969
       4533.9833       1.0158695
       4535.9331       1.0493345
       4537.8830       1.0449110
       4539.8329       1.0584393
       4541.7827       1.0774397
       4543.7326       1.1045945
       4545.6824       1.1289933
       4547.6323       1.1306523
       4549.5821       1.1255760
       4551.5320       1.1512125
       4553.4819       1.1941614
       4555.4317       1.2065564
       4557.3816       1.1985029
       4559.3314       1.2058930
       4561.2813       1.2298816
       4563.2312       1.2515599
       4565.1811       1.2690144
       4567.1310       1.2803192
       4569.0808       1.2618004
       4571.0307       1.2552000
       4572.9805       1.3022030
       4574.9304       1.3366374
       4576.8802       1.3666522
       4578.8301       1.3856847
       4580.7800       1.3923050
       4582.7298       1.4272555
       4584.6797       1.4535099
       4586.6295       1.4595327
       4588.5794       1.4835074
       4590.5292       1.5107309
       4592.4791       1.5240841
       4594.4290       1.5540392
       4596.3788       1.5914915
       4598.3287       1.5928444
       4600.2785       1.5744177
       4602.2284       1.5845385
       4604.1782       1.5569592
       4606.1281       1.5337223
       4608.0780       1.5435635
       4610.0278       1.5479260
       4611.9778       1.5408817
       4613.9276       1.5320271
       4615.8775       1.5484116
       4617.8273       1.5542675
       4619.7772       1.5736370
       4621.7270       1.5800404
       4623.6769       1.5503679
       4625.6268       1.5509669
       4627.5766       1.5883931
       4629.5265       1.6100559
       4631.4763       1.5926660
       4633.4262       1.6016751
       4635.3760       1.6292786
       4637.3259       1.6222809
       4639.2758       1.6114567
       4641.2256       1.6057852
       4643.1755       1.5890194
       4645.1253       1.5694285
       4647.0752       1.5900423
       4649.0250       1.5900750
       4650.9749       1.5325160
       4652.9248       1.5072829
       4654.8746       1.5088751
       4656.8245       1.5014448
       4658.7743       1.4883099
       4660.7242       1.4743387
       4662.6741       1.4757184
       4664.6240       1.4852722
       4666.5739       1.4847590
       4668.5237       1.4464722
       4670.4736       1.4211889
       4672.4234       1.4382575
       4674.3733       1.4239477
       4676.3231       1.3772670
       4678.2730       1.3715441
       4680.2229       1.3798689
       4682.1727       1.3525856
       4684.1226       1.3228356
       4686.0724       1.3081091
       4688.0223       1.2980854
       4689.9721       1.2921911
       4691.9220       1.2862919
       4693.8719       1.2809379
       4695.8217       1.2662783
       4697.7716       1.2381034
       4699.7214       1.2082997
       4701.6713       1.1802895
       4703.6211       1.1604385
       4705.5710       1.1414061
       4707.5208       1.1333386
       4709.4707       1.1044250
       4711.4207       1.0761614
       4713.3705       1.0596655
       4715.3204       1.0457089
       4717.2702       1.0498481
       4719.2201       1.0397396
       4721.1699       1.0306731
       4723.1198       1.0418149
       4725.0697       1.0239277
       4727.0195       1.0023895
       4728.9694       1.0062905
       4730.9192       1.0230136
       4732.8691       1.0429986
       4734.8189       1.0328728
       4736.7688       1.0238331
       4738.7187       1.0274336
       4740.6685       1.0256712
       4742.6184       1.0237812
       4744.5682       1.0151315
       4746.5181      0.99671001
       4748.4679      0.99417429
       4750.4178      0.98961917
       4752.3677      0.96295957
       4754.3175      0.95183089
       4756.2674      0.97088289
       4758.2172      0.95602293
       4760.1671      0.94962237
       4762.1170      0.94987165
       4764.0669      0.94956789
       4766.0168      0.95541401
       4767.9666      0.94493429
       4769.9165      0.91305277
       4771.8663      0.90152549
       4773.8162      0.89449405
       4775.7660      0.87236045
       4777.7159      0.86601317
       4779.6658      0.87259181
       4781.6156      0.87125237
       4783.5655      0.86211045
       4785.5153      0.84821369
       4787.4652      0.82469073
       4789.4150      0.81727553
       4791.3649      0.82791481
       4793.3147      0.82913885
       4795.2646      0.81866133
       4797.2145      0.81083385
       4799.1643      0.82730581
       4801.1142      0.81850901
       4803.0640      0.80344477
       4805.0139      0.79891097
       4806.9637      0.79670053
       4808.9136      0.79753993
       4810.8636      0.79688913
       4812.8134      0.79758713
       4814.7633      0.79949781
       4816.7131      0.80395633
       4818.6630      0.81120701
       4820.6128      0.81800889
       4822.5627      0.82800273
       4824.5126      0.82774861
       4826.4624      0.83274145
       4828.4123      0.84867325
       4830.3621      0.86950361
       4832.3120      0.88952293
       4834.2618      0.89386733
       4836.2117      0.89231017
       4838.1616      0.89930697
       4840.1114      0.91305897
       4842.0613      0.90979825
       4844.0111      0.90695877
       4845.9610      0.92880153
       4847.9108      0.92012665
       4849.8607      0.89897489
       4851.8106      0.90306053
       4853.7604      0.90295429
       4855.7103      0.90501937
       4857.6601      0.89210901
       4859.6100      0.88479081
       4861.5599      0.89193221
       4863.5098      0.89606781
       4865.4597      0.88346433
       4867.4095      0.87922993
       4869.3594      0.88502829
       4871.3092      0.87876989
       4873.2591      0.87682793
       4875.2089      0.86420785
       4877.1588      0.86285861
       4879.1086      0.86192265
       4881.0585      0.86234781
       4883.0084      0.87293761
       4884.9582      0.88111421
       4886.9081      0.87601985
       4888.8579      0.88456393
       4890.8078      0.88994085
       4892.7576      0.87339545
       4894.7075      0.88491277
       4896.6574      0.90175821
       4898.6072      0.90492289
       4900.5571      0.90525637
       4902.5069      0.91453305
       4904.4568      0.92596685
       4906.4066      0.92956601
       4908.3565      0.92407925
       4910.3064      0.92411937
       4912.2563      0.93794453
       4914.2062      0.95012189
       4916.1560      0.95675277
       4918.1059      0.96771661
       4920.0557      0.97433473
       4922.0056      0.97629233
       4923.9555      0.98152029
       4925.9053       1.0035746
       4927.8552       1.0228541
       4929.8050       1.0214403
       4931.7549       1.0247569
       4933.7047       1.0591729
       4935.6546       1.0848432
       4937.6045       1.0866056
       4939.5543       1.0829918
       4941.5042       1.1004417
       4943.4540       1.1294724
       4945.4039       1.1708954
       4947.3537       1.1970732
       4949.3036       1.1978300
       4951.2534       1.2184038
       4953.2033       1.2413693
       4955.1532       1.2491167
       4957.1030       1.2528910
       4959.0529       1.2773281
       4961.0028       1.2896292
       4962.9527       1.3123443
       4964.9025       1.3234934
       4966.8524       1.3172276
       4968.8023       1.3321311
       4970.7521       1.3441439
       4972.7020       1.3405853
       4974.6518       1.3375033
       4976.6017       1.3390302
       4978.5515       1.3384283
       4980.5014       1.3386585
       4982.4513       1.3392853
       4984.4011       1.3146691
       4986.3510       1.2880136
       4988.3008       1.2557425
       4990.2507       1.2447583
       4992.2005       1.2415793
       4994.1504       1.2253895
       4996.1003       1.2103953
       4998.0501       1.1840351
       5000.0000       1.1658212
       5001.9498       1.1610863
       5003.8997       1.1415267
       5005.8495       1.1161935
       5007.7994       1.0773987
       5009.7493       1.0505848
       5011.6992       1.0304751
       5013.6491      0.99385509
       5015.5989      0.96378737
       5017.5488      0.95438557
       5019.4986      0.93306849
       5021.4485      0.89862597
       5023.3984      0.88424625
       5025.3482      0.88809397
       5027.2981      0.89920409
       5029.2479      0.90862525
       5031.1978      0.89229269
       5033.1476      0.85859317
       5035.0975      0.82551577
       5037.0473      0.81333201
       5038.9972      0.81205549
       5040.9471      0.79762689
       5042.8969      0.78206865
       5044.8468      0.77262897
       5046.7966      0.75776897
       5048.7465      0.74914733
       5050.6963      0.75424325
       5052.6462      0.75523229
       5054.5961      0.74491349
       5056.5459      0.73252657
       5058.4958      0.72879737
       5060.4457      0.73656073
       5062.3956      0.73092185
       5064.3454      0.72982581
       5066.2953      0.72118001
       5068.2452      0.71447517
       5070.1950      0.72926193
       5072.1449      0.73126869
       5074.0947      0.72077333
       5076.0446      0.72726561
       5077.9944      0.72688525
       5079.9443      0.72687561
       5081.8942      0.73514721
       5083.8440      0.74312849
       5085.7939      0.74191105
       5087.7437      0.73887197
       5089.6936      0.75994169
       5091.6434      0.77070181
       5093.5933      0.75882789
       5095.5432      0.76280193
       5097.4930      0.77466461
       5099.4429      0.78783073
       5101.3927      0.78631773
       5103.3426      0.77962213
       5105.2924      0.79940929
       5107.2423      0.82739021
       5109.1922      0.84038277
       5111.1421      0.84632161
       5113.0920      0.84107789
       5115.0418      0.85090905
       5116.9917      0.86517165
       5118.9415      0.87938929
       5120.8914      0.89417117
       5122.8412      0.90838785
       5124.7911      0.90022489
       5126.7410      0.90660285
       5128.6908      0.91146221
       5130.6407      0.91967125
       5132.5905      0.94003689
       5134.5404      0.93968917
       5136.4902      0.94530449
       5138.4401      0.95641469
       5140.3900      0.97598153
       5142.3398      0.98311749
       5144.2897      0.99294605
       5146.2395       1.0127911
       5148.1894      0.99777729
       5150.1392       1.0079382
       5152.0891       1.0219361
       5154.0390       1.0313334
       5155.9888       1.0343336
       5157.9387       1.0244607
       5159.8886       1.0421009
       5161.8385       1.0442895
       5163.7883       1.0430241
       5165.7382       1.0357148
       5167.6881       1.0483038
       5169.6379       1.0579993
       5171.5878       1.0491829
       5173.5376       1.0628441
       5175.4875       1.0821907
       5177.4373       1.0925644
       5179.3872       1.0748637
       5181.3371       1.0890225
       5183.2869       1.0951866
       5185.2368       1.1100487
       5187.1866       1.1178090
       5189.1365       1.1181809
       5191.0863       1.1036679
       5193.0362       1.1156508
       5194.9861       1.1431649
       5196.9359       1.1351257
       5198.8858       1.1119862
       5200.8356       1.1268114
       5202.7855       1.1495461
       5204.7353       1.1387578
       5206.6852       1.1309361
       5208.6350       1.1411745
       5210.5850       1.1482966
       5212.5349       1.1663876
       5214.4847       1.1953509
       5216.4346       1.1871001
       5218.3844       1.2024330
       5220.3343       1.2124085
       5222.2841       1.2101959
       5224.2340       1.2219715
       5226.1839       1.2586153
       5228.1337       1.2806029
       5230.0836       1.2791596
       5232.0334       1.3029193
       5233.9833       1.3089762
       5235.9331       1.3122856
       5237.8830       1.3236387
       5239.8329       1.3107513
       5241.7827       1.3113329
       5243.7326       1.3312687
       5245.6824       1.3074947
       5247.6323       1.3321917
       5249.5821       1.3467391
       5251.5320       1.3660443
       5253.4819       1.3810189
       5255.4317       1.3863304
       5257.3816       1.3939005
       5259.3315       1.3937334
       5261.2814       1.3964969
       5263.2312       1.3865702
       5265.1811       1.3995518
       5267.1310       1.4059626
       5269.0808       1.4240721
       5271.0307       1.4342085
       5272.9805       1.4445271
       5274.9304       1.4530485
       5276.8802       1.4519375
       5278.8301       1.4642205
       5280.7800       1.5077645
       5282.7298       1.5313719
       5284.6797       1.5270355
       5286.6295       1.5457789
       5288.5794       1.5776968
       5290.5292       1.5718767
       5292.4791       1.5725845
       5294.4289       1.5952158
       5296.3788       1.6113222
       5298.3287       1.6105591
       5300.2785       1.6009262
       5302.2284       1.6206123
       5304.1782       1.6241467
       5306.1281       1.6244229
       5308.0779       1.6228915
       5310.0279       1.6292280
       5311.9778       1.6274632
       5313.9276       1.6482433
       5315.8775       1.6445473
       5317.8273       1.6345917
       5319.7772       1.6456971
       5321.7270       1.6691303
       5323.6769       1.6774973
       5325.6268       1.7072476
       5327.5766       1.7396254
       5329.5265       1.7196480
       5331.4763       1.7024708
       5333.4262       1.7214627
       5335.3760       1.7445231
       5337.3259       1.7570679
       5339.2758       1.7702355
       5341.2256       1.7719011
       5343.1755       1.8028130
       5345.1253       1.8045620
       5347.0752       1.8011791
       5349.0250       1.8099068
       5350.9749       1.8206833
       5352.9248       1.8110834
       5354.8746       1.8093659
       5356.8245       1.8141218
       5358.7744       1.8140778
       5360.7243       1.8066277
       5362.6741       1.8027869
       5364.6240       1.7921131
       5366.5738       1.7935373
       5368.5237       1.8135739
       5370.4736       1.7952061
       5372.4234       1.7710747
       5374.3733       1.7724442
       5376.3231       1.7912468
       5378.2730       1.7882561
       5380.2228       1.7712019
       5382.1727       1.7767380
       5384.1226       1.7814963
       5386.0724       1.7576799
       5388.0223       1.7408741
       5389.9721       1.7277134
       5391.9220       1.7330029
       5393.8718       1.7239050
       5395.8217       1.7158831
       5397.7716       1.7354599
       5399.7214       1.7207647
       5401.6713       1.6964726
       5403.6211       1.6913799
       5405.5710       1.7040520
       5407.5208       1.7175270
       5409.4708       1.6971115
       5411.4207       1.6695469
       5413.3705       1.6524046
       5415.3204       1.6527458
       5417.2702       1.6314289
       5419.2201       1.6047991
       5421.1699       1.5898190
       5423.1198       1.5995684
       5425.0697       1.5815111
       5427.0195       1.5735144
       5428.9694       1.5741293
       5430.9192       1.5537262
       5432.8691       1.5550296
       5434.8189       1.5368278
       5436.7688       1.5144591
       5438.7187       1.5070648
       5440.6685       1.5034929
       5442.6184       1.5029242
       5444.5682       1.5093710
       5446.5181       1.5135225
       5448.4679       1.5010546
       5450.4178       1.5007887
       5452.3676       1.5185356
       5454.3175       1.5220885
       5456.2674       1.5272333
       5458.2173       1.5440411
       5460.1672       1.5623932
       5462.1170       1.5652375
       5464.0669       1.5655382
       5466.0167       1.6010460
       5467.9666       1.6328121
       5469.9165       1.6665350
       5471.8663       1.6993409
       5473.8162       1.7436085
       5475.7660       1.7961556
       5477.7159       1.8306029
       5479.6657       1.8813187
       5481.6156       1.9224899
       5483.5655       1.9575394
       5485.5153       1.9915520
       5487.4652       2.0194859
       5489.4150       2.0614586
       5491.3649       2.1026333
       5493.3147       2.1329075
       5495.2646       2.1742447
       5497.2145       2.2049034
       5499.1643       2.2528569
       5501.1142       2.2843293
       5503.0640       2.3134604
       5505.0139       2.3506676
       5506.9637       2.3672009
       5508.9137       2.3954964
       5510.8636       2.4112954
       5512.8134       2.4481789
       5514.7633       2.4838082
       5516.7131       2.5006569
       5518.6630       2.5217144
       5520.6128       2.5144759
       5522.5627       2.4908463
       5524.5126       2.4780449
       5526.4624       2.4637833
       5528.4123       2.4786852
       5530.3621       2.5153693
       5532.3120       2.4942765
       5534.2618       2.4583886
       5536.2117       2.4361939
       5538.1615       2.4081332
       5540.1114       2.3727436
       5542.0613       2.3558943
       5544.0111       2.3323237
       5545.9610       2.2936821
       5547.9108       2.2796610
       5549.8607       2.2486504
       5551.8105       2.2083558
       5553.7604       2.1826432
       5555.7103       2.1623545
       5557.6602       2.1482907
       5559.6101       2.1180056
       5561.5599       2.0674962
       5563.5098       2.0084253
       5565.4596       1.9731509
       5567.4095       1.9301396
       5569.3594       1.8882557
       5571.3092       1.8688565
       5573.2591       1.8297379
       5575.2089       1.7822430
       5577.1588       1.7777239
       5579.1086       1.7790854
       5581.0585       1.7266054
       5583.0084       1.6932495
       5584.9582       1.6995150
       5586.9081       1.6759999
       5588.8579       1.6294953
       5590.8078       1.6075659
       5592.7576       1.6294749
       5594.7075       1.6452692
       5596.6574       1.6404501
       5598.6072       1.6355877
       5600.5571       1.6558073
       5602.5069       1.6806679
       5604.4568       1.6888722
       5606.4066       1.7046497
       5608.3566       1.7130608
       5610.3065       1.7280159
       5612.2563       1.7396832
       5614.2062       1.7732529
       5616.1560       1.7983605
       5618.1059       1.8057692
       5620.0557       1.8097138
       5622.0056       1.8280041
       5623.9554       1.8777569
       5625.9053       1.9257912
       5627.8552       1.9374241
       5629.8050       1.9337864
       5631.7549       1.9688465
       5633.7047       1.9981848
       5635.6546       2.0027763
       5637.6044       2.0429574
       5639.5543       2.0898302
       5641.5042       2.1301690
       5643.4540       2.1195702
       5645.4039       2.0840516
       5647.3537       2.0915730
       5649.3036       2.0746615
       5651.2534       2.0708445
       5653.2033       2.0586730
       5655.1532       2.0675122
       5657.1031       2.0512135
       5659.0530       2.0146790
       5661.0028       1.9814648
       5662.9527       1.9326111
       5664.9025       1.8596438
       5666.8524       1.7982189
       5668.8023       1.7522476
       5670.7521       1.7038807
       5672.7020       1.6162426
       5674.6518       1.5769236
       5676.6017       1.5648512
       5678.5515       1.5240735
       5680.5014       1.4522194
       5682.4513       1.4233829
       5684.4011       1.4027501
       5686.3510       1.3632267
       5688.3008       1.3318292
       5690.2507       1.3284711
       5692.2005       1.3064365
       5694.1504       1.2566416
       5696.1002       1.2379698
       5698.0501       1.2203415
       5700.0000       1.2145339
       5701.9498       1.2144591
       5703.8997       1.2065115
       5705.8495       1.1973435
       5707.7995       1.1500099
       5709.7493       1.1339163
       5711.6992       1.1094219
       5713.6491       1.0692802
       5715.5989       1.0577290
       5717.5488       1.0556265
       5719.4986       1.0522537
       5721.4485       1.0734352
       5723.3983       1.0704685
       5725.3482       1.0408785
       5727.2981       1.0419723
       5729.2479       1.0726057
       5731.1978       1.1009895
       5733.1476       1.0871389
       5735.0975       1.0801091
       5737.0473       1.0786867
       5738.9972       1.0869999
       5740.9471       1.0720772
       5742.8969       1.0519335
       5744.8468       1.0488250
       5746.7966       1.0469658
       5748.7465       1.0184212
       5750.6963       1.0067978
       5752.6462       1.0053616
       5754.5961       1.0082266
       5756.5459      0.98838885
       5758.4959      0.97829249
       5760.4457      0.98046401
       5762.3956       1.0131199
       5764.3454       1.0044173
       5766.2953      0.96961165
       5768.2452      0.96687565
       5770.1950      0.96706393
       5772.1449      0.95673161
       5774.0947      0.94739665
       5776.0446      0.96364529
       5777.9944      0.98167621
       5779.9443      0.99115613
       5781.8941      0.98183825
       5783.8440      0.98043537
       5785.7939      0.97915241
       5787.7437      0.97284813
       5789.6936      0.97438337
       5791.6434      0.96763517
       5793.5933      0.97098229
       5795.5431      0.97219317
       5797.4930      0.98987369
       5799.4429       1.0068852
       5801.3927       1.0155945
       5803.3426       1.0168570
       5805.2924       1.0052013
       5807.2424       1.0180615
       5809.1922       1.0646658
       5811.1421       1.0913885
       5813.0920       1.0840679
       5815.0418       1.0786490
       5816.9917       1.1051636
       5818.9415       1.1433710
       5820.8914       1.1834755
       5822.8412       1.2205569
       5824.7911       1.2504595
       5826.7410       1.2696539
       5828.6908       1.3138783
       5830.6407       1.3823343
       5832.5905       1.4289488
       5834.5404       1.4535954
       5836.4902       1.4750525
       5838.4401       1.5229948
       5840.3900       1.5597710
       5842.3398       1.5707791
       5844.2897       1.5839062
       5846.2395       1.6276505
       5848.1894       1.6880102
       5850.1392       1.7274910
       5852.0891       1.7457899
       5854.0390       1.7697312
       5855.9888       1.7973946
       5857.9388       1.8378567
       5859.8886       1.8688036
       5861.8385       1.8849457
       5863.7883       1.9192463
       5865.7382       1.9665055
       5867.6880       1.9827589
       5869.6379       2.0044293
       5871.5878       2.0421692
       5873.5376       2.0664070
       5875.4875       2.0792595
       5877.4373       2.1071538
       5879.3872       2.1402659
       5881.3370       2.1798224
       5883.2869       2.1833012
       5885.2368       2.1448899
       5887.1866       2.1350529
       5889.1365       2.1479958
       5891.0863       2.1538395
       5893.0362       2.1671011
       5894.9860       2.1998616
       5896.9359       2.2170655
       5898.8858       2.2206341
       5900.8356       2.2214129
       5902.7855       2.2524090
       5904.7353       2.2583491
       5906.6853       2.2483025
       5908.6351       2.2490891
       5910.5850       2.2516209
       5912.5349       2.2474076
       5914.4847       2.2077286
       5916.4346       2.1784956
       5918.3844       2.1859139
       5920.3343       2.1782980
       5922.2841       2.1827988
       5924.2340       2.2146445
       5926.1839       2.2379471
       5928.1337       2.2344906
       5930.0836       2.2337555
       5932.0334       2.2272130
       5933.9833       2.2222252
       5935.9331       2.2290139
       5937.8830       2.2406765
       5939.8329       2.2420990
       5941.7827       2.2306796
       5943.7326       2.2338406
       5945.6824       2.2691868
       5947.6323       2.2615811
       5949.5821       2.2173580
       5951.5320       2.2135910
       5953.4818       2.2287068
       5955.4317       2.1940812
       5957.3817       2.1328831
       5959.3315       2.1368229
       5961.2814       2.1423462
       5963.2312       2.1153412
       5965.1811       2.1065039
       5967.1309       2.1081635
       5969.0808       2.0926260
       5971.0307       2.0760174
       5972.9805       2.0881739
       5974.9304       2.1312272
       5976.8802       2.1472739
       5978.8301       2.1076764
       5980.7799       2.0924401
       5982.7298       2.0768509
       5984.6797       2.0697991
       5986.6295       2.0665306
       5988.5794       2.0746514
       5990.5292       2.0900664
       5992.4791       2.0797184
       5994.4289       2.0595902
       5996.3788       2.0570372
       5998.3287       2.0727179
       6000.2785       2.0330159
       6002.2284       1.9889118
       6004.1782       1.9936226
       6006.1282       1.9764164
       6008.0780       1.9675778
       6010.0279       1.9515179
       6011.9778       1.9059124
       6013.9276       1.8751522
       6015.8775       1.8622608
       6017.8273       1.8869202
       6019.7772       1.9011032
       6021.7270       1.8649107
       6023.6769       1.8272814
       6025.6268       1.7953085
       6027.5766       1.7825177
       6029.5265       1.7862793
       6031.4763       1.7702965
       6033.4262       1.7484329
       6035.3760       1.7577610
       6037.3259       1.7482514
       6039.2757       1.7012093
       6041.2256       1.6972801
       6043.1755       1.6931605
       6045.1253       1.6678141
       6047.0752       1.6556740
       6049.0250       1.6216093
       6050.9749       1.5871838
       6052.9247       1.5763052
       6054.8746       1.5570505
       6056.8246       1.5330361
       6058.7744       1.5041285
       6060.7243       1.4795159
       6062.6741       1.4623422
       6064.6240       1.4516333
       6066.5738       1.4576130
       6068.5237       1.4412501
       6070.4736       1.4006663
       6072.4234       1.3896197
       6074.3733       1.3990370
       6076.3231       1.4184957
       6078.2730       1.4148478
       6080.2228       1.3703681
       6082.1727       1.3678967
       6084.1226       1.3985605
       6086.0724       1.3982672
       6088.0223       1.3918955
       6089.9721       1.3997306
       6091.9220       1.4219915
       6093.8718       1.4483654
       6095.8217       1.4498982
       6097.7716       1.4524515
       6099.7214       1.4551757
       6101.6713       1.4513907
       6103.6211       1.4533893
       6105.5711       1.4592244
       6107.5209       1.4529033
       6109.4708       1.4486740
       6111.4207       1.4762724
       6113.3705       1.4979206
       6115.3204       1.5000117
       6117.2702       1.5127110
       6119.2201       1.5229748
       6121.1699       1.5045426
       6123.1198       1.4870358
       6125.0696       1.4886215
       6127.0195       1.4923929
       6128.9694       1.5083260
       6130.9192       1.5055775
       6132.8691       1.4953673
       6134.8189       1.5009389
       6136.7688       1.5012541
       6138.7186       1.5012183
       6140.6685       1.5117514
       6142.6184       1.5164151
       6144.5682       1.5319513
       6146.5181       1.5469639
       6148.4679       1.5396771
       6150.4178       1.5284246
       6152.3676       1.5205777
       6154.3175       1.5253010
       6156.2675       1.5348978
       6158.2173       1.5488549
       6160.1672       1.5580644
       6162.1170       1.5530157
       6164.0669       1.5425039
       6166.0167       1.5366949
       6167.9666       1.5469549
       6169.9165       1.5591245
       6171.8663       1.5607006
       6173.8162       1.5656196
       6175.7660       1.5826038
       6177.7159       1.5991406
       6179.6657       1.6032715
       6181.6156       1.6191666
       6183.5655       1.6476013
       6185.5153       1.6659790
       6187.4652       1.6891636
       6189.4150       1.7337071
       6191.3649       1.7627711
       6193.3147       1.7700440
       6195.2646       1.7610367
       6197.2144       1.7591498
       6199.1643       1.7765932
       6201.1142       1.8118025
       6203.0640       1.8312267
       6205.0140       1.8424431
       6206.9638       1.8581765
       6208.9137       1.8622479
       6210.8635       1.8791231
       6212.8134       1.8973745
       6214.7633       1.9044882
       6216.7131       1.9257477
       6218.6630       1.9570828
       6220.6128       1.9653242
       6222.5627       1.9666838
       6224.5125       1.9757269
       6226.4624       1.9847393
       6228.4123       2.0037670
       6230.3621       2.0141846
       6232.3120       2.0475882
       6234.2618       2.0494187
       6236.2117       2.0256073
       6238.1615       2.0321862
       6240.1114       2.0195275
       6242.0613       1.9787743
       6244.0111       1.9814720
       6245.9610       1.9881643
       6247.9108       1.9678437
       6249.8607       1.9929295
       6251.8105       2.0545910
       6253.7604       2.0631737
       6255.7104       2.0452107
       6257.6602       2.0722979
       6259.6101       2.0755024
       6261.5599       2.0471934
       6263.5098       2.0868401
       6265.4596       2.0813107
       6267.4095       2.0000376
       6269.3594       1.9717335
       6271.3092       2.0503495
       6273.2591       2.1052662
       6275.2089       2.0770230
       6277.1588       2.0520428
       6279.1086       2.0828270
       6281.0585       2.1052384
       6283.0083       2.1113190
       6284.9582       2.1227936
       6286.9081       2.1079249
       6288.8579       2.0684521
       6290.8078       2.0639441
       6292.7576       2.0869309
       6294.7075       2.0610342
       6296.6573       2.0584221
       6298.6072       2.0607268
       6300.5571       2.0310673
       6302.5069       1.9966772
       6304.4569       1.9813145
       6306.4067       1.9470661
       6308.3566       1.9005379
       6310.3064       1.9276865
       6312.2563       1.9763096
       6314.2062       1.9582852
       6316.1560       1.9443516
       6318.1059       1.9183752
       6320.0557       1.8728516
       6322.0056       1.8728726
       6323.9554       1.8923167
       6325.9053       1.8932923
       6327.8552       1.8263569
       6329.8050       1.7887463
       6331.7549       1.7867577
       6333.7047       1.7921856
       6335.6546       1.8196373
       6337.6044       1.8376621
       6339.5543       1.8264132
       6341.5042       1.8186920
       6343.4540       1.7883831
       6345.4039       1.7561714
       6347.3537       1.7442497
       6349.3036       1.7544033
       6351.2534       1.7426064
       6353.2033       1.7279892
       6355.1533       1.7216690
       6357.1031       1.7239619
       6359.0530       1.7223286
       6361.0028       1.7228436
       6362.9527       1.7302079
       6364.9025       1.7256140
       6366.8524       1.7193754
       6368.8022       1.7154805
       6370.7521       1.7060051
       6372.7020       1.6820858
       6374.6518       1.6710308
       6376.6017       1.6729531
       6378.5515       1.6461464
       6380.5014       1.6285105
       6382.4512       1.6216740
       6384.4011       1.6126549
       6386.3510       1.5989783
       6388.3008       1.6006268
       6390.2507       1.6074814
       6392.2005       1.5984277
       6394.1504       1.5920580
       6396.1002       1.5920345
       6398.0501       1.5758345
       6400.0000       1.5833605
       6401.9498       1.6102715
       6403.8998       1.6127401
       6405.8496       1.5856772
       6407.7995       1.5575909
       6409.7493       1.5759926
       6411.6992       1.5673254
       6413.6491       1.5501736
       6415.5989       1.5343968
       6417.5488       1.5267601
       6419.4986       1.5347529
       6421.4485       1.5327109
       6423.3983       1.5390878
       6425.3482       1.5362227
       6427.2981       1.5326790
       6429.2479       1.5311071
       6431.1978       1.5236498
       6433.1476       1.5262687
       6435.0975       1.5441410
       6437.0473       1.5454993
       6438.9972       1.5498562
       6440.9471       1.5725296
       6442.8969       1.5767170
       6444.8468       1.5909068
       6446.7966       1.6140816
       6448.7465       1.6250859
       6450.6963       1.6387405
       6452.6462       1.6418354
       6454.5961       1.6719767
       6456.5460       1.7065109
       6458.4959       1.7191147
       6460.4457       1.7036633
       6462.3956       1.6863937
       6464.3454       1.7052775
       6466.2953       1.7174986
       6468.2451       1.6956477
       6470.1950       1.6840717
       6472.1449       1.6915068
       6474.0947       1.7166140
       6476.0446       1.7174873
       6477.9944       1.7056007
       6479.9443       1.7068766
       6481.8941       1.7032219
       6483.8440       1.7308525
       6485.7939       1.7428976
       6487.7437       1.7185045
       6489.6936       1.7011769
       6491.6434       1.7001486
       6493.5933       1.7137631
       6495.5431       1.7352963
       6497.4930       1.7443699
       6499.4429       1.7308682
       6501.3927       1.7161530
       6503.3427       1.7052584
       6505.2925       1.7346173
       6507.2424       1.7377617
       6509.1922       1.7174997
       6511.1421       1.7016270
       6513.0920       1.7060494
       6515.0418       1.7691437
       6516.9917       1.7801851
       6518.9415       1.6976755
       6520.8914       1.6783444
       6522.8412       1.6670004
       6524.7911       1.6409781
       6526.7409       1.6498387
       6528.6908       1.6630158
       6530.6407       1.6204172
       6532.5905       1.6041910
       6534.5404       1.6038962
       6536.4902       1.6007422
       6538.4401       1.6044377
       6540.3899       1.5993321
       6542.3398       1.6131302
       6544.2897       1.6373909
       6546.2395       1.6378399
       6548.1894       1.6378416
       6550.1392       1.6485375
       6552.0891       1.6259735
       6554.0390       1.6198582
       6555.9889       1.6376532
       6557.9388       1.6238026
       6559.8886       1.6292622
       6561.8385       1.6529656
       6563.7883       1.6602219
       6565.7382       1.6535405
       6567.6880       1.6669445
       6569.6379       1.6856835
       6571.5878       1.6688576
       6573.5376       1.6426771
       6575.4875       1.6582731
       6577.4373       1.6777611
       6579.3872       1.6913885
       6581.3370       1.6907519
       6583.2869       1.6679615
       6585.2368       1.6608040
       6587.1866       1.6647688
       6589.1365       1.6738651
       6591.0863       1.6744477
       6593.0362       1.6885132
       6594.9860       1.6890381
       6596.9359       1.6745037
       6598.8858       1.6402996
       6600.8356       1.5917266
       6602.7855       1.5647892
       6604.7354       1.5862028
       6606.6853       1.5990317
       6608.6351       1.5878416
       6610.5850       1.5716335
       6612.5348       1.5827184
       6614.4847       1.5665817
       6616.4346       1.5488573
       6618.3844       1.5440117
       6620.3343       1.5305220
       6622.2841       1.5403851
       6624.2340       1.5513251
       6626.1838       1.5536829
       6628.1337       1.5357889
       6630.0836       1.5275585
       6632.0334       1.5277763
       6633.9833       1.5163956
       6635.9331       1.5165425
       6637.8830       1.5063173
       6639.8328       1.4911087
       6641.7827       1.4751156
       6643.7326       1.4569274
       6645.6824       1.4711594
       6647.6323       1.4714173
       6649.5821       1.4494757
       6651.5320       1.4541867
       6653.4819       1.4471807
       6655.4318       1.4402125
       6657.3817       1.4441315
       6659.3315       1.4243057
       6661.2814       1.4204559
       6663.2312       1.4438262
       6665.1811       1.4632729
       6667.1309       1.4750108
       6669.0808       1.4707455
       6671.0307       1.4674396
       6672.9805       1.4470650
       6674.9304       1.4582853
       6676.8802       1.4599907
       6678.8301       1.4260525
       6680.7799       1.4200673
       6682.7298       1.4193553
       6684.6797       1.3959280
       6686.6295       1.3915735
       6688.5794       1.3916485
       6690.5292       1.3887935
       6692.4791       1.3852277
       6694.4289       1.3906870
       6696.3788       1.3923493
       6698.3286       1.3828487
       6700.2785       1.3831816
       6702.2284       1.3771221
       6704.1783       1.3728051
       6706.1282       1.3836228
       6708.0780       1.3728687
       6710.0279       1.3581957
       6711.9777       1.3606567
       6713.9276       1.3490500
       6715.8775       1.3385192
       6717.8273       1.3267287
       6719.7772       1.3160881
       6721.7270       1.3122447
       6723.6769       1.3178036
       6725.6267       1.3082661
       6727.5766       1.3136206
       6729.5265       1.3021855
       6731.4763       1.2652424
       6733.4262       1.2678382
       6735.3760       1.2771628
       6737.3259       1.2728077
       6739.2757       1.2524553
       6741.2256       1.2540203
       6743.1755       1.2631129
       6745.1253       1.2775324
       6747.0752       1.2820391
       6749.0250       1.2632710
       6750.9749       1.2658451
       6752.9248       1.2581469
       6754.8747       1.2341080
       6756.8246       1.2187224
       6758.7744       1.2087947
       6760.7243       1.2142026
       6762.6741       1.2296862
       6764.6240       1.2325343
       6766.5738       1.2379720
       6768.5237       1.2232872
       6770.4736       1.2140329
       6772.4234       1.2111538
       6774.3733       1.2147213
       6776.3231       1.2121391
       6778.2730       1.2108248
       6780.2228       1.2338665
       6782.1727       1.2440097
       6784.1225       1.2487124
       6786.0724       1.2521244
       6788.0223       1.2456311
       6789.9721       1.2346363
       6791.9220       1.2214061
       6793.8718       1.2360655
       6795.8217       1.2509367
       6797.7715       1.2469917
       6799.7214       1.2298821
       6801.6713       1.2197375
       6803.6212       1.2221926
       6805.5711       1.2226769
       6807.5209       1.2085507
       6809.4708       1.2033831
       6811.4206       1.2057383
       6813.3705       1.2030961
       6815.3204       1.2149642
       6817.2702       1.2256595
       6819.2201       1.2186520
       6821.1699       1.1974939
       6823.1198       1.1912762
       6825.0696       1.2071812
       6827.0195       1.1985555
       6828.9694       1.2121581
       6830.9192       1.2191730
       6832.8691       1.1889629
       6834.8189       1.2028408
       6836.7688       1.2026181
       6838.7186       1.1845772
       6840.6685       1.1893312
       6842.6184       1.1926880
       6844.5682       1.1992243
       6846.5181       1.1837103
       6848.4679       1.1652021
       6850.4178       1.1753451
       6852.3677       1.1750807
       6854.3176       1.1562880
       6856.2675       1.1201810
       6858.2173       1.0881481
       6860.1672       1.0935824
       6862.1170       1.0916495
       6864.0669       1.0639597
       6866.0167       1.0223906
       6867.9666      0.97133181
       6869.9164      0.95747997
       6871.8663       1.0163000
       6873.8162       1.0577439
       6875.7660       1.0125233
       6877.7159      0.98290233
       6879.6657       1.0190911
       6881.6156       1.0160973
       6883.5654      0.96718237
       6885.5153      0.95561085
       6887.4652      0.95967273
       6889.4150      0.97960837
       6891.3649       1.0192648
       6893.3147      0.99336681
       6895.2646      0.94042113
       6897.2144      0.92605897
       6899.1643      0.95555365
       6901.1142      0.98805525
       6903.0641       1.0077351
       6905.0140       1.0049329
       6906.9638       1.0005101
       6908.9137      0.99365597
       6910.8635      0.97989893
       6912.8134      0.96738929
       6914.7633      0.97393953
       6916.7131      0.99190581
       6918.6630       1.0006020
       6920.6128      0.98249245
       6922.5627      0.97011397
       6924.5125      0.99095145
       6926.4624       1.0064963
       6928.4123      0.98822461
       6930.3621      0.97290821
       6932.3120      0.98322965
       6934.2618       1.0000969
       6936.2117       1.0340081
       6938.1615       1.0377503
       6940.1114       1.0157408
       6942.0612       1.0182770
       6944.0111       1.0303938
       6945.9610       1.0463674
       6947.9108       1.0494958
       6949.8607       1.0690434
       6951.8106       1.0818741
       6953.7605       1.0775923
       6955.7103       1.0699450
       6957.6602       1.0596365
       6959.6101       1.0614940
       6961.5599       1.0824215
       6963.5098       1.0993929
       6965.4596       1.1449070
       6967.4095       1.1586122
       6969.3593       1.1374895
       6971.3092       1.1295897
       6973.2591       1.1430647
       6975.2089       1.1370701
       6977.1588       1.1434713
       6979.1086       1.1638544
       6981.0585       1.1745972
       6983.0083       1.1685032
       6984.9582       1.1702669
       6986.9081       1.1647949
       6988.8579       1.1497003
       6990.8078       1.1594563
       6992.7576       1.1631918
       6994.7075       1.1658581
       6996.6573       1.1854491
       6998.6072       1.2007197
       7000.5571       1.2126902
       7002.5070       1.1945603
       7004.4569       1.1782882
       7006.4067       1.2102493
       7008.3566       1.2220664
       7010.3064       1.2101986
       7012.2563       1.2133111
       7014.2062       1.1923345
       7016.1560       1.1985977
       7018.1059       1.2263567
       7020.0557       1.2153756
       7022.0056       1.1782928
       7023.9554       1.1370361
       7025.9053       1.1542141
       7027.8551       1.1771120
       7029.8050       1.1728487
       7031.7549       1.1845085
       7033.7047       1.1626852
       7035.6546       1.1397893
       7037.6044       1.1363287
       7039.5543       1.1326230
       7041.5041       1.1629731
       7043.4540       1.1591385
       7045.4039       1.1214853
       7047.3537       1.1258362
       7049.3036       1.1493748
       7051.2535       1.1247258
       7053.2034       1.1049025
       7055.1532       1.1079685
       7057.1031       1.1134754
       7059.0530       1.1112139
       7061.0028       1.1150982
       7062.9527       1.1621609
       7064.9025       1.2040412
       7066.8524       1.0477550
       7068.8022      0.89571573
       7070.7521       1.0573020
       7072.7020       1.1042185
       7074.6518       1.0918524
       7076.6017       1.0833731
       7078.5515       1.0573503
       7080.5014       1.0742587
       7082.4512       1.0993921
       7084.4011       1.1287501
       7086.3510       1.1431831
       7088.3008       1.0866825
       7090.2507       1.0366560
       7092.2005       1.0382443
       7094.1504       1.0695985
       7096.1002       1.1195467
       7098.0501       1.1441423
       7100.0000       1.0925509
       7101.9499       1.0527947
       7103.8998       1.0650271
       7105.8496       1.0671053
       7107.7995       1.0746183
       7109.7493       1.0670765
       7111.6992       1.0668669
       7113.6490       1.0534754
       7115.5989       1.0469015
       7117.5488       1.0451398
       7119.4986       1.0918761
       7121.4485       1.1188131
       7123.3983       1.1032625
       7125.3482       1.0937443
       7127.2980       1.0769738
       7129.2479       1.0468929
       7131.1978       1.0610511
       7133.1476       1.0719720
       7135.0975       1.0558213
       7137.0473       1.0386665
       7138.9972       1.0314734
       7140.9470       1.0350138
       7142.8969       1.0447891
       7144.8468       1.0740059
       7146.7966       1.1170189
       7148.7465       1.1244581
       7150.6964       1.0937854
       7152.6463       1.1146143
       7154.5961       1.1339893
       7156.5460       1.1154440
       7158.4959       1.1224025
       7160.4457       1.1175741
       7162.3956       1.1081284
       7164.3454       1.0940642
       7166.2953       1.1011877
       7168.2451       1.1162262
       7170.1950       1.1215386
       7172.1449       1.1204298
       7174.0947       1.1165293
       7176.0446       1.0773769
       7177.9944       1.0366064
       7179.9443       1.0538844
       7181.8941       1.1019499
       7183.8440       1.1237799
       7185.7939       1.1106751
       7187.7437       1.1428505
       7189.6936       1.1295449
       7191.6434       1.1021895
       7193.5933       1.1130881
       7195.5431       1.1463229
       7197.4930       1.1353059
       7199.4428       1.0980855
       7201.3928       1.1173243
       7203.3427       1.1534741
       7205.2925       1.1682268
       7207.2424       1.1663205
       7209.1922       1.1971775
       7211.1421       1.2059901
       7213.0919       1.1692051
       7215.0418       1.1254179
       7216.9917       1.1414265
       7218.9415       1.1298566
       7220.8914       1.1041498
       7222.8412       1.1388964
       7224.7911       1.2099225
       7226.7409       1.2029501
       7228.6908       1.1419602
       7230.6407       1.1304986
       7232.5905       1.1747155
       7234.5404       1.2156223
       7236.4902       1.1996311
       7238.4401       1.2330811
       7240.3899       1.2696985
       7242.3398       1.2354458
       7244.2897       1.2271618
       7246.2395       1.2653475
       7248.1894       1.2972937
       7250.1393       1.2802269
       7252.0892       1.2289613
       7254.0390       1.2130412
       7255.9889       1.2257361
       7257.9388       1.2443106
       7259.8886       1.2438017
       7261.8385       1.2561589
       7263.7883       1.2937016
       7265.7382       1.3168442
       7267.6880       1.3063355
       7269.6379       1.3194779
       7271.5878       1.2880457
       7273.5376       1.2494333
       7275.4875       1.2494471
       7277.4373       1.2858711
       7279.3872       1.3157084
       7281.3370       1.3377411
       7283.2869       1.3813545
       7285.2367       1.3784949
       7287.1866       1.3087624
       7289.1365       1.3335764
       7291.0863       1.3877081
       7293.0362       1.3705430
       7294.9860       1.3850493
       7296.9359       1.3979756
       7298.8857       1.3466184
       7300.8357       1.3427885
       7302.7856       1.3678677
       7304.7354       1.3368881
       7306.6853       1.3015021
       7308.6351       1.3437088
       7310.5850       1.3755507
       7312.5348       1.3298830
       7314.4847       1.3075266
       7316.4346       1.3441355
       7318.3844       1.3613896
       7320.3343       1.3560001
       7322.2841       1.3339255
       7324.2340       1.3376770
       7326.1838       1.3958084
       7328.1337       1.4370351
       7330.0836       1.4177429
       7332.0334       1.3885434
       7333.9833       1.3737410
       7335.9331       1.3653284
       7337.8830       1.3172455
       7339.8328       1.3039243
       7341.7827       1.3168915
       7343.7326       1.3298433
       7345.6824       1.3504261
       7347.6323       1.3390865
       7349.5822       1.3362406
       7351.5321       1.3349598
       7353.4819       1.3579918
       7355.4318       1.3773974
       7357.3816       1.3591981
       7359.3315       1.3247613
       7361.2814       1.3555180
       7363.2312       1.3842396
       7365.1811       1.3466349
       7367.1309       1.3212200
       7369.0808       1.3302124
       7371.0306       1.3409656
       7372.9805       1.3230414
       7374.9304       1.3461234
       7376.8802       1.3616553
       7378.8301       1.3414578
       7380.7799       1.2831039
       7382.7298       1.2590092
       7384.6796       1.2931443
       7386.6295       1.3202027
       7388.5794       1.3123030
       7390.5292       1.2994304
       7392.4791       1.2896179
       7394.4289       1.3076163
       7396.3788       1.3170101
       7398.3286       1.3081617
       7400.2786       1.2964423
       7402.2285       1.2836117
       7404.1783       1.2949276
       7406.1282       1.3021780
       7408.0780       1.3048517
       7410.0279       1.2987240
       7411.9777       1.2892168
       7413.9276       1.2943955
       7415.8775       1.2805597
       7417.8273       1.2636965
       7419.7772       1.2704971
       7421.7270       1.2772650
       7423.6769       1.2716700
       7425.6267       1.2816864
       7427.5766       1.2793360
       7429.5265       1.2604178
       7431.4763       1.2678833
       7433.4262       1.2682145
       7435.3760       1.2533511
       7437.3259       1.2433484
       7439.2757       1.2527544
       7441.2256       1.2654364
       7443.1754       1.2547785
       7445.1253       1.2310018
       7447.0752       1.2370083
       7449.0250       1.2407859
       7450.9750       1.2317422
       7452.9248       1.2247984
       7454.8747       1.2440807
       7456.8245       1.2591566
       7458.7744       1.2552747
       7460.7243       1.2332489
       7462.6741       1.2240299
       7464.6240       1.2269051
       7466.5738       1.2430408
       7468.5237       1.2323185
       7470.4735       1.2035265
       7472.4234       1.1923014
       7474.3733       1.1876196
       7476.3231       1.2142769
       7478.2730       1.2214184
       7480.2228       1.1915072
       7482.1727       1.1866104
       7484.1225       1.1841251
       7486.0724       1.1688001
       7488.0223       1.1612610
       7489.9721       1.1640331
       7491.9220       1.1618387
       7493.8718       1.1505844
       7495.8217       1.1277157
       7497.7715       1.1414313
       7499.7215       1.1398207
       7501.6714       1.1350495
       7503.6212       1.1076841
       7505.5711       1.0848339
       7507.5209       1.0725652
       7509.4708       1.0635182
       7511.4206       1.0791788
       7513.3705       1.0530939
       7515.3204       1.0373276
       7517.2702       1.0248486
       7519.2201       1.0418112
       7521.1699       1.0469930
       7523.1198       1.0424725
       7525.0696       1.0255602
       7527.0195       1.0189028
       7528.9693       1.0181939
       7530.9192      0.99881677
       7532.8691      0.96911681
       7534.8189      0.97866593
       7536.7688      0.97770797
       7538.7186      0.97359945
       7540.6685      0.96147289
       7542.6183      0.95472545
       7544.5682      0.93062973
       7546.5181      0.91502973
       7548.4679      0.91225129
       7550.4179      0.91219809
       7552.3677      0.91029797
       7554.3176      0.90584261
       7556.2674      0.88586313
       7558.2173      0.88545857
       7560.1672      0.88795989
       7562.1170      0.89537697
       7564.0669      0.90794469
       7566.0167      0.89048481
       7567.9666      0.85384789
       7569.9164      0.84615813
       7571.8663      0.85549261
       7573.8162      0.85098877
       7575.7660      0.85888777
       7577.7159      0.85400209
       7579.6657      0.85472977
       7581.6156      0.81250849
       7583.5654      0.78415425
       7585.5153      0.78378517
       7587.4652      0.79284133
       7589.4150      0.89835377
       7591.3649       1.0537958
       7593.3147      0.95806245
       7595.2646      0.71359945
       7597.2144      0.61286097
       7599.1644      0.59551065
       7601.1143      0.61793481
       7603.0641      0.60572573
       7605.0140      0.53337793
       7606.9638      0.54234517
       7608.9137      0.66392137
       7610.8635      0.73724429
       7612.8134      0.67632433
       7614.7632      0.64850113
       7616.7131      0.69287601
       7618.6630      0.70641033
       7620.6128      0.63769441
       7622.5627      0.59200509
       7624.5125      0.58632413
       7626.4624      0.55171737
       7628.4122      0.54021809
       7630.3621      0.54811893
       7632.3120      0.57571805
       7634.2618      0.60862141
       7636.2117      0.58781281
       7638.1615      0.60085601
       7640.1114      0.62842285
       7642.0612      0.60537545
       7644.0111      0.58256893
       7645.9610      0.59504381
       7647.9108      0.59977245
       7649.8608      0.62521781
       7651.8106      0.65187989
       7653.7605      0.66069109
       7655.7103      0.69229545
       7657.6602      0.69743189
       7659.6101      0.68969361
       7661.5599      0.68434165
       7663.5098      0.68564253
       7665.4596      0.71354333
       7667.4095      0.74617453
       7669.3593      0.73715049
       7671.3092      0.73887769
       7673.2591      0.78179273
       7675.2089      0.83883249
       7677.1588      0.84929637
       7679.1086      0.86968833
       7681.0585      0.91959801
       7683.0083      0.89332297
       7684.9582      0.88907129
       7686.9081      0.95733261
       7688.8579      0.96340161
       7690.8078       1.0054169
       7692.7576       1.0708041
       7694.7075       1.0622826
       7696.6573       1.0924315
       7698.6073       1.1159497
       7700.5571       1.1434799
       7702.5070       1.1679787
       7704.4569       1.1667511
       7706.4067       1.1608130
       7708.3566       1.1566363
       7710.3064       1.1772513
       7712.2563       1.2123123
       7714.2061       1.2842234
       7716.1560       1.2886298
       7718.1059       1.2840180
       7720.0557       1.3446364
       7722.0056       1.3539013
       7723.9554       1.3294007
       7725.9053       1.3507782
       7727.8551       1.3684195
       7729.8050       1.3671049
       7731.7549       1.4066351
       7733.7047       1.4506752
       7735.6546       1.4373925
       7737.6044       1.3961422
       7739.5543       1.4493117
       7741.5041       1.5594685
       7743.4540       1.5925488
       7745.4039       1.5714257
       7747.3537       1.5522181
       7749.3037       1.5335791
       7751.2535       1.5712817
       7753.2034       1.6055229
       7755.1532       1.5855862
       7757.1031       1.5710127
       7759.0530       1.5848154
       7761.0028       1.6540112
       7762.9527       1.6952021
       7764.9025       1.6873419
       7766.8524       1.6363634
       7768.8022       1.5966471
       7770.7521       1.6247265
       7772.7019       1.7309353
       7774.6518       1.8411797
       7776.6017       1.7648989
       7778.5515       1.7295960
       7780.5014       1.7595032
       7782.4512       1.6921948
       7784.4011       1.7078064
       7786.3509       1.7207922
       7788.3008       1.6616947
       7790.2507       1.6185799
       7792.2005       1.6169769
       7794.1504       1.6586182
       7796.1002       1.6239779
       7798.0502       1.5827190
       7800.0000       1.6026263
       7801.9499       1.6195761
       7803.8998       1.5908518
       7805.8496       1.5705733
       7807.7995       1.5442523
       7809.7493       1.5297968
       7811.6992       1.5552082
       7813.6490       1.5716182
       7815.5989       1.5535252
       7817.5488       1.5280064
       7819.4986       1.5174679
       7821.4485       1.5263733
       7823.3983       1.5151930
       7825.3482       1.5384339
       7827.2980       1.4964939
       7829.2479       1.4368394
       7831.1978       1.4743203
       7833.1476       1.5248079
       7835.0975       1.5203041
       7837.0473       1.4913571
       7838.9972       1.5658167
       7840.9470       1.6413309
       7842.8969       1.5609393
       7844.8468       1.5216250
       7846.7966       1.5078906
       7848.7466       1.4806193
       7850.6964       1.4762904
       7852.6463       1.4761444
       7854.5961       1.4994685
       7856.5460       1.4803812
       7858.4958       1.4483069
       7860.4457       1.4415164
       7862.3956       1.4770994
       7864.3454       1.4760265
       7866.2953       1.4386223
       7868.2451       1.4279322
       7870.1950       1.4068853
       7872.1448       1.3970843
       7874.0947       1.4048357
       7876.0446       1.4290762
       7877.9944       1.5192219
       7879.9443       1.5277326
       7881.8941       1.4655545
       7883.8440       1.4451523
       7885.7938       1.4406443
       7887.7437       1.4433286
       7889.6936       1.4378222
       7891.6434       1.4846493
       7893.5933       1.5140167
       7895.5431       1.4879127
       7897.4931       1.4547805
       7899.4429       1.4328824
       7901.3928       1.4433208
       7903.3427       1.4444400
       7905.2925       1.4315230
       7907.2424       1.3926739
       7909.1922       1.3880812
       7911.1421       1.4554700
       7913.0919       1.4874180
       7915.0418       1.4187503
       7916.9917       1.3822246
       7918.9415       1.3811761
       7920.8914       1.4013235
       7922.8412       1.3989111
       7924.7911       1.3725678
       7926.7409       1.3959084
       7928.6908       1.4267641
       7930.6407       1.4146776
       7932.5905       1.3824216
       7934.5404       1.3774538
       7936.4902       1.4188987
       7938.4401       1.4381798
       7940.3899       1.3961711
       7942.3398       1.4054611
       7944.2896       1.4410799
       7946.2395       1.3972111
       7948.1895       1.3420017
       7950.1393       1.3628947
       7952.0892       1.3835135
       7954.0390       1.3734021
       7955.9889       1.3545419
       7957.9387       1.3425081
       7959.8886       1.3268063
       7961.8385       1.2959554
       7963.7883       1.2779606
       7965.7382       1.3067763
       7967.6880       1.2940924
       7969.6379       1.2520993
       7971.5877       1.2553949
       7973.5376       1.2565603
       7975.4875       1.2189375
       7977.4373       1.2228375
       7979.3872       1.2440206
       7981.3370       1.2456637
       7983.2869       1.2478220
       7985.2367       1.2888683
       7987.1866       1.2699537
       7989.1365       1.2421034
       7991.0863       1.2486740
       7993.0362       1.2333437
       7994.9860       1.1995338
       7996.9360       1.2113003
       7998.8858       1.2135613
       8000.8357       1.2105243
       8002.7856       1.2194327
       8004.7354       1.1836353
       8006.6853       1.1571104
       8008.6351       1.2051895
       8010.5850       1.2193428
       8012.5348       1.1800989
       8014.4847       1.1406269
       8016.4346       1.1472620
       8018.3844       1.1537663
       8020.3343       1.1558457
       8022.2841       1.1781897
       8024.2340       1.1639111
       8026.1838       1.1052389
       8028.1337       1.0912069
       8030.0835       1.1264922
       8032.0334       1.1728047
       8033.9833       1.1564949
       8035.9331       1.1082962
       8037.8830       1.1124029
       8039.8328       1.1250593
       8041.7827       1.1057680
       8043.7325       1.0884283
       8045.6824       1.1077866
       8047.6324       1.1379647
       8049.5822       1.1327091
       8051.5321       1.1063429
       8053.4819       1.1102207
       8055.4318       1.1156525
       8057.3816       1.1004992
       8059.3315       1.0729445
       8061.2814       1.0546005
       8063.2312       1.0309128
       8065.1811       1.0270260
       8067.1309       1.0782129
       8069.0808       1.0608008
       8071.0306       1.0135693
       8072.9805       1.0222398
       8074.9304       1.0100741
       8076.8802       1.0016466
       8078.8301       1.0131302
       8080.7799       1.0012598
       8082.7298      0.98163633
       8084.6796      0.99684525
       8086.6295       1.0277548
       8088.5794       1.0114632
       8090.5292      0.95687029
       8092.4791      0.93135129
       8094.4289      0.93805237
       8096.3789      0.93567905
       8098.3287      0.91856949
       8100.2786      0.92458689
       8102.2285      0.94969781
       8104.1783      0.92624133
       8106.1282      0.90246753
       8108.0780      0.89259265
       8110.0279      0.87438729
       8111.9777      0.87582473
       8113.9276      0.89685481
       8115.8774      0.91482629
       8117.8273      0.91013281
       8119.7772      0.87643073
       8121.7270      0.86049577
       8123.6769      0.86390469
       8125.6267      0.85603469
       8127.5766      0.84522517
       8129.5264      0.85119381
       8131.4763      0.85838253
       8133.4262      0.84388877
       8135.3760      0.86523801
       8137.3259      0.91434929
       8139.2757      0.90356913
       8141.2256      0.86395781
       8143.1754      0.85072041
       8145.1253      0.85994389
       8147.0753      0.87152957
       8149.0251      0.85467761
       8150.9750      0.83711501
       8152.9248      0.87501957
       8154.8747      0.91566717
       8156.8245      0.96265401
       8158.7744       1.0694344
       8160.7243       1.0790052
       8162.6741      0.95253829
       8164.6240      0.85478077
       8166.5738      0.82567933
       8168.5237      0.80198345
       8170.4735      0.79210725
       8172.4234      0.81107657
       8174.3733      0.80242893
       8176.3231      0.78149753
       8178.2730      0.82768117
       8180.2228      0.84969781
       8182.1727      0.80023997
       8184.1225      0.80209589
       8186.0724      0.79066649
       8188.0222      0.72724409
       8189.9721      0.69740653
       8191.9220      0.68208609
       8193.8718      0.66076521
       8195.8218      0.61756517
       8197.7716      0.56583569
       8199.7215      0.55367041
       8201.6713      0.55721369
       8203.6212      0.54026213
       8205.5711      0.50851845
       8207.5209      0.45637745
       8209.4708      0.43373301
       8211.4206      0.44337145
       8213.3705      0.43786397
       8215.3203      0.42532873
       8217.2702      0.37757774
       8219.2201      0.33411537
       8221.1699      0.32489410
       8223.1198      0.30678931
       8225.0696      0.28961878
       8227.0195      0.28604737
       8228.9693      0.28499189
       8230.9192      0.29331158
       8232.8691      0.30583811
       8234.8189      0.31614748
       8236.7688      0.32456498
       8238.7186      0.30637956
       8240.6685      0.29503079
       8242.6183      0.31224590
       8244.5682      0.30813194
       8246.5182      0.27958856
       8248.4680      0.26874447
       8250.4179      0.27110911
       8252.3677      0.25730668
       8254.3176      0.23894496
       8256.2674      0.23245683
       8258.2173      0.23892150
       8260.1672      0.25550004
       8262.1170      0.24790247
       8264.0669      0.22325202
       8266.0167      0.22007237
       8267.9666      0.23498843
       8269.9164      0.23402553
       8271.8663      0.21359792
       8273.8161      0.20752411
       8275.7660      0.23356428
       8277.7159      0.24443479
       8279.6657      0.21824875
       8281.6156      0.21555024
       8283.5654      0.23368664
       8285.5153      0.22462471
       8287.4651      0.21801498
       8289.4150      0.22808834
       8291.3649      0.20358136
       8293.3147      0.18536382
       8295.2646      0.22460814
       8297.2145      0.24115727
       8299.1644      0.23173366
       8301.1142      0.22874008
       8303.0641      0.20849786
       8305.0140      0.21218229
       8306.9638      0.23271041
       8308.9137      0.23513432
       8310.8635      0.23468004
       8312.8134      0.24827958
       8314.7632      0.27526644
       8316.7131      0.28447204
       8318.6630      0.27173124
       8320.6128      0.27006393
       8322.5627      0.28480912
       8324.5125      0.28153468
       8326.4624      0.26607476
       8328.4122      0.25762642
       8330.3621      0.24994593
       8332.3120      0.26828456
       8334.2618      0.31149066
       8336.2117      0.31369777
       8338.1615      0.27060285
       8340.1114      0.25711494
       8342.0612      0.27720552
       8344.0111      0.27435980
       8345.9611      0.25905886
       8347.9109      0.25570817
       8349.8608      0.26824127
       8351.8106      0.27783514
       8353.7605      0.27171989
       8355.7103      0.27323346
       8357.6602      0.27634907
       8359.6100      0.28016026
       8361.5599      0.30601669
       8363.5098      0.29859455
       8365.4596      0.25876952
       8367.4095      0.24619658
       8369.3593      0.26104961
       8371.3092      0.27240367
       8373.2590      0.26774705
       8375.2089      0.26002426
       8377.1588      0.27849200
       8379.1086      0.30988140
       8381.0585      0.31036620
       8383.0083      0.29571054
       8384.9582      0.30120845
       8386.9080      0.30246580
       8388.8579      0.26510153
       8390.8078      0.25653286
       8392.7576      0.28899427
       8394.7075      0.30162025
       8396.6574      0.31156020
       8398.6073      0.33296824
       8400.5571      0.33815110
       8402.5070      0.34143797
       8404.4569      0.32485566
       8406.4067      0.31297646
       8408.3566      0.35010839
       8410.3064      0.36588615
       8412.2563      0.32486353
       8414.2061      0.29673572
       8416.1560      0.30354045
       8418.1059      0.30334535
       8420.0557      0.30890122
       8422.0056      0.33914045
       8423.9554      0.36817971
       8425.9053      0.35088215
       8427.8551      0.33654128
       8429.8050      0.35544067
       8431.7549      0.37366517
       8433.7047      0.36860166
       8435.6546      0.36423577
       8437.6044      0.39499539
       8439.5543      0.43025789
       8441.5041      0.42665945
       8443.4540      0.42847785
       8445.4039      0.43978405
       8447.3538      0.44798701
       8449.3037      0.46343669
       8451.2535      0.47615425
       8453.2034      0.47197749
       8455.1532      0.47186881
       8457.1031      0.50961397
       8459.0529      0.52163029
       8461.0028      0.51044417
       8462.9527      0.54582401
       8464.9025      0.59170561
       8466.8524      0.59059457
       8468.8022      0.58179149
       8470.7521      0.57620489
       8472.7019      0.58411669
       8474.6518      0.60593253
       8476.6017      0.63414337
       8478.5515      0.67042761
       8480.5014      0.69704181
       8482.4512      0.70313985
       8484.4011      0.70381997
       8486.3509      0.71761097
       8488.3008      0.72912969
       8490.2507      0.73756993
       8492.2005      0.76924397
       8494.1504      0.78690509
       8496.1003      0.80490533
       8498.0502      0.83127833
       8500.0000      0.82282133
