Units are: observed wavelength (Ang), observed flux (10^-15 erg/s/cm^2/Ang)
       4255.0000    -0.041291250
       4256.2698    -0.037153650
       4257.5397     0.015082730
       4258.8096     0.028715090
       4260.0794    0.0028949920
       4261.3493     0.010424930
       4262.6192     0.017852920
       4263.8891    0.0038944220
       4265.1589     0.010243520
       4266.4288    0.0071647430
       4267.6986    0.0029536840
       4268.9685     0.013856540
       4270.2383     0.025608160
       4271.5082     0.023923540
       4272.7780     0.017154690
       4274.0479     0.029881780
       4275.3177     0.038737940
       4276.5876     0.035355500
       4277.8574     0.022666920
       4279.1273    0.0079223220
       4280.3973    0.0024424850
       4281.6671   -0.0081969130
       4282.9370    0.0074995070
       4284.2068     0.029010530
       4285.4767     0.025370210
       4286.7465     0.024225800
       4288.0164     0.020550660
       4289.2862     0.014945260
       4290.5561     0.013655380
       4291.8259    0.0089926720
       4293.0958    0.0069519410
       4294.3656     0.020219580
       4295.6355     0.022598000
       4296.9054    0.0055189760
       4298.1753    0.0089822880
       4299.4451     0.032602270
       4300.7150     0.034344580
       4301.9849     0.012408960
       4303.2547    0.0082674320
       4304.5246     0.015566230
       4305.7944     0.014096940
       4307.0643     0.017875730
       4308.3341     0.020363370
       4309.6040    0.0066532700
       4310.8738   -0.0059763920
       4312.1437  -0.00080226270
       4313.4136    0.0093438950
       4314.6835    0.0062764680
       4315.9533   -0.0036269100
       4317.2232   -0.0082781800
       4318.4930    -0.012201430
       4319.7629    0.0024899250
       4321.0327    0.0083155320
       4322.3026   -0.0025010330
       4323.5725   -0.0032482790
       4324.8423     0.018120860
       4326.1122     0.024363900
       4327.3820    0.0046130840
       4328.6519    0.0048262700
       4329.9218     0.012977400
       4331.1917     0.013414240
       4332.4615    0.0070905220
       4333.7314   -0.0022273540
       4335.0012    0.0088391080
       4336.2711     0.030776000
       4337.5409     0.031207360
       4338.8108     0.014679150
       4340.0806    0.0095397750
       4341.3505     0.019758490
       4342.6203     0.016008050
       4343.8902    0.0055150360
       4345.1601     0.016172620
       4346.4299     0.023927350
       4347.6999    0.0086834930
       4348.9697     0.013808390
       4350.2396     0.028477080
       4351.5094     0.011294290
       4352.7793    0.0086368670
       4354.0491     0.018438610
       4355.3190     0.013213830
       4356.5888     0.012835710
       4357.8587     0.024567770
       4359.1285     0.022577300
       4360.3984     0.030534100
       4361.6682     0.025444590
       4362.9381     0.037272290
       4364.2080     0.049350020
       4365.4779   -0.0083393930
       4366.7478    -0.026588310
       4368.0176     0.023347020
       4369.2875     0.034224540
       4370.5573    0.0072548550
       4371.8272     0.014568820
       4373.0970     0.027998850
       4374.3669    0.0046193310
       4375.6367   -0.0065348080
       4376.9066     0.018020650
       4378.1764     0.021524690
       4379.4463   0.00086460080
       4380.7162    0.0010815240
       4381.9861     0.018514910
       4383.2559     0.020602210
       4384.5258  -0.00050136530
       4385.7956    0.0085421300
       4387.0655     0.033770150
       4388.3354     0.041120970
       4389.6052     0.034580990
       4390.8751     0.031522780
       4392.1449     0.044533740
       4393.4148     0.022693030
       4394.6846    0.0096003230
       4395.9545     0.030595280
       4397.2244     0.043255150
       4398.4943     0.031732280
       4399.7641    0.0068246740
       4401.0340    0.0062506300
       4402.3038     0.044205410
       4403.5737     0.046879050
       4404.8435     0.014069700
       4406.1134     0.013171270
       4407.3833     0.022546820
       4408.6531     0.015119500
       4409.9230     0.020405040
       4411.1928     0.027750950
       4412.4627     0.032780690
       4413.7325     0.031267400
       4415.0025     0.029732990
       4416.2723     0.010617320
       4417.5422     0.012821940
       4418.8120     0.033704990
       4420.0819     0.031294640
       4421.3517     0.013347430
       4422.6216    0.0087300080
       4423.8914     0.014352070
       4425.1613     0.015270530
       4426.4311     0.013236890
       4427.7010    0.0097106900
       4428.9709    0.0054373750
       4430.2407    0.0026604040
       4431.5107   -0.0049732900
       4432.7805    0.0095582590
       4434.0504     0.013694650
       4435.3202    0.0022570820
       4436.5901     0.018894260
       4437.8599     0.029216120
       4439.1298     0.020821240
       4440.3996     0.027495200
       4441.6695     0.028639300
       4442.9393     0.017148060
       4444.2092     0.019615660
       4445.4790     0.032510810
       4446.7489     0.035889580
       4448.0188     0.028972890
       4449.2887     0.032043980
       4450.5586     0.027593890
       4451.8284    0.0040324250
       4453.0983    0.0047692570
       4454.3681     0.022159160
       4455.6380     0.020151420
       4456.9078     0.036872510
       4458.1777     0.038929860
       4459.4475     0.015203880
       4460.7174    0.0035056270
       4461.9872    0.0040653210
       4463.2571    0.0081329060
       4464.5270     0.012503200
       4465.7969     0.032525700
       4467.0667     0.039971900
       4468.3366     0.035674900
       4469.6064     0.018340080
       4470.8763     0.012441220
       4472.1462     0.027552760
       4473.4160     0.036238300
       4474.6859     0.031288670
       4475.9557     0.013282490
       4477.2256     0.012507160
       4478.4954     0.041331310
       4479.7653     0.037891600
       4481.0351     0.020203850
       4482.3051     0.016418870
       4483.5749     0.023279740
       4484.8448     0.026429010
       4486.1146     0.031325730
       4487.3845     0.028002200
       4488.6543     0.022512080
       4489.9242     0.032534760
       4491.1940     0.030086820
       4492.4639     0.020922490
       4493.7338     0.031424440
       4495.0036     0.042770260
       4496.2735     0.028939140
       4497.5433     0.020466960
       4498.8133     0.031715040
       4500.0831     0.031157120
       4501.3530     0.030167510
       4502.6228     0.013710910
       4503.8927     0.014255550
       4505.1625     0.035431920
       4506.4324     0.031516480
       4507.7022     0.018791600
       4508.9721     0.017265050
       4510.2419     0.026363640
       4511.5118     0.042887810
       4512.7816     0.026853500
       4514.0515     0.014081550
       4515.3215     0.010913440
       4516.5913     0.023074970
       4517.8612     0.032172910
       4519.1310     0.022374710
       4520.4009     0.017712570
       4521.6707     0.013368330
       4522.9406     0.010467210
       4524.2104     0.014993340
       4525.4803     0.015590640
       4526.7501     0.024359060
       4528.0200     0.036379250
       4529.2898     0.027434350
       4530.5597     0.012343380
       4531.8296     0.011715540
       4533.0995     0.034470250
       4534.3693     0.042505340
       4535.6392     0.042428150
       4536.9091     0.046155550
       4538.1789     0.048073420
       4539.4488     0.031503630
       4540.7186     0.024463110
       4541.9885     0.034986780
       4543.2583     0.036697400
       4544.5282     0.031552480
       4545.7980     0.023566360
       4547.0679     0.029164390
       4548.3378     0.015965390
       4549.6077    0.0086829750
       4550.8775     0.033292230
       4552.1474     0.027502430
       4553.4172     0.019772600
       4554.6871     0.024723400
       4555.9569     0.036311770
       4557.2268     0.048290820
       4558.4967     0.035226650
       4559.7665     0.021560580
       4561.0364     0.045769450
       4562.3062     0.057274770
       4563.5761     0.050407770
       4564.8459     0.061460470
       4566.1159     0.055375730
       4567.3857     0.045472060
       4568.6556     0.036558800
       4569.9254     0.043462210
       4571.1953     0.060245340
       4572.4651     0.053593240
       4573.7350     0.043359270
       4575.0048     0.058815710
       4576.2747     0.063744590
       4577.5445     0.052619280
       4578.8144     0.051568290
       4580.0843     0.056355240
       4581.3541     0.062075030
       4582.6241     0.060275500
       4583.8939     0.059699430
       4585.1638     0.075626400
       4586.4336     0.077419000
       4587.7035     0.050882950
       4588.9733     0.049761420
       4590.2432     0.051320270
       4591.5130     0.069788290
       4592.7829     0.084371390
       4594.0527     0.067146130
       4595.3226     0.056058210
       4596.5924     0.051509450
       4597.8623     0.058195200
       4599.1322     0.068418120
       4600.4021     0.053372470
       4601.6720     0.046193420
       4602.9418     0.049347220
       4604.2117     0.046639910
       4605.4815     0.054345090
       4606.7514     0.052845840
       4608.0212     0.044836990
       4609.2911     0.040302030
       4610.5609     0.047050270
       4611.8308     0.064761980
       4613.1006     0.056926680
       4614.3705     0.044025040
       4615.6404     0.041955030
       4616.9103     0.039831980
       4618.1801     0.041686360
       4619.4500     0.041397850
       4620.7198     0.037066240
       4621.9897     0.040162410
       4623.2596     0.035542910
       4624.5294     0.033739410
       4625.7993     0.033510960
       4627.0691     0.030916560
       4628.3390     0.037384260
       4629.6088     0.041973620
       4630.8787     0.032246110
       4632.1485     0.026112860
       4633.4185     0.026063680
       4634.6883     0.022106710
       4635.9582     0.028285040
       4637.2280     0.030915530
       4638.4979     0.030256780
       4639.7677     0.036622770
       4641.0376     0.033606750
       4642.3074     0.041354780
       4643.5773     0.046007620
       4644.8472     0.035100370
       4646.1170     0.033106510
       4647.3869     0.028790150
       4648.6567     0.025662190
       4649.9267     0.025356080
       4651.1965     0.022328050
       4652.4664     0.024542200
       4653.7362     0.033601500
       4655.0061     0.039175090
       4656.2759     0.029370400
       4657.5458     0.026625770
       4658.8156     0.028717850
       4660.0855     0.023211370
       4661.3553     0.011113860
       4662.6252     0.011515150
       4663.8950     0.021361060
       4665.1649     0.024192090
       4666.4349     0.024147770
       4667.7047     0.013916840
       4668.9746     0.020385040
       4670.2444     0.029881440
       4671.5143     0.027635080
       4672.7841     0.028004070
       4674.0540     0.025902940
       4675.3238     0.028103270
       4676.5937     0.037978620
       4677.8635     0.031735520
       4679.1334     0.022957040
       4680.4032     0.022116500
       4681.6731     0.032522310
       4682.9430     0.041041770
       4684.2129     0.034049780
       4685.4827     0.024930950
       4686.7526     0.028468440
       4688.0225     0.026589200
       4689.2923     0.021519550
       4690.5622     0.029353220
       4691.8320     0.035487940
       4693.1019     0.032258440
       4694.3717     0.027059270
       4695.6416     0.027008790
       4696.9114     0.028212820
       4698.1813     0.027995270
       4699.4511     0.028626380
       4700.7211     0.027461580
       4701.9909     0.037745160
       4703.2608     0.042092410
       4704.5306     0.028122310
       4705.8005     0.025692250
       4707.0703     0.042613470
       4708.3402     0.050429240
       4709.6101     0.044044960
       4710.8799     0.038710190
       4712.1498     0.025829350
       4713.4196     0.018047480
       4714.6895     0.021567480
       4715.9593     0.018401790
       4717.2293     0.017496900
       4718.4991     0.021564150
       4719.7690     0.023606190
       4721.0388     0.019237450
       4722.3087     0.014548960
       4723.5785     0.012655570
       4724.8484     0.020761340
       4726.1182     0.036241840
       4727.3881     0.027727610
       4728.6579     0.020684720
       4729.9278     0.028836860
       4731.1977     0.028390590
       4732.4675     0.021506640
       4733.7375     0.013475530
       4735.0073    0.0082590020
       4736.2772     0.017622690
       4737.5470     0.026156590
       4738.8169     0.029391900
       4740.0867     0.030401010
       4741.3566     0.034225240
       4742.6264     0.034205750
       4743.8963     0.031768170
       4745.1661     0.031346360
       4746.4360     0.024192120
       4747.7058     0.010858020
       4748.9757     0.010825660
       4750.2456     0.021406020
       4751.5155     0.028821130
       4752.7854     0.032299720
       4754.0552     0.034049070
       4755.3251     0.034649030
       4756.5949     0.025488590
       4757.8648     0.014981100
       4759.1346     0.014037040
       4760.4045     0.019968540
       4761.6743     0.023179010
       4762.9442     0.021154310
       4764.2140     0.020603010
       4765.4839     0.023504950
       4766.7537     0.017319840
       4768.0237    0.0071938620
       4769.2935    0.0088214260
       4770.5634     0.016260130
       4771.8332     0.022315270
       4773.1031     0.022048960
       4774.3730     0.025251390
       4775.6428     0.027785830
       4776.9127     0.025374770
       4778.1825     0.022204590
       4779.4524     0.014943390
       4780.7222     0.014754710
       4781.9921     0.018789990
       4783.2619     0.020873300
       4784.5319     0.024275480
       4785.8017     0.026359050
       4787.0716     0.035283090
       4788.3414     0.038612890
       4789.6113     0.030593940
       4790.8811     0.022445970
       4792.1510     0.021555310
       4793.4208     0.027583240
       4794.6907     0.023012450
       4795.9606    0.0080810840
       4797.2304    0.0078451770
       4798.5003     0.017210160
       4799.7701     0.014622150
       4801.0401     0.015605810
       4802.3099     0.024235680
       4803.5798     0.022945940
       4804.8496     0.015421800
       4806.1195     0.012233280
       4807.3893     0.017728290
       4808.6592     0.026206380
       4809.9290     0.022957690
       4811.1989     0.014643560
       4812.4687     0.014641250
       4813.7386     0.025200050
       4815.0084     0.030211540
       4816.2783     0.025110910
       4817.5483     0.021894670
       4818.8181     0.024478240
       4820.0880     0.029098360
       4821.3578     0.024662440
       4822.6277     0.015057660
       4823.8975     0.017933840
       4825.1674     0.023894690
       4826.4372     0.017668660
       4827.7071     0.016047970
       4828.9769     0.030845730
       4830.2468     0.034729150
       4831.5166     0.016642410
       4832.7865    0.0085012770
       4834.0564     0.022369510
       4835.3263     0.033817680
       4836.5962     0.029103850
       4837.8660     0.026258780
       4839.1359     0.022904180
       4840.4057     0.011036380
       4841.6756    0.0086188710
       4842.9454    0.0084387220
       4844.2153    0.0052520380
       4845.4851     0.013523000
       4846.7550     0.023416250
       4848.0248     0.027465930
       4849.2947     0.023776810
       4850.5645    0.0098779170
       4851.8345     0.010219690
       4853.1043     0.022768140
       4854.3742     0.022264840
       4855.6440     0.020054620
       4856.9139     0.020339640
       4858.1838     0.020310740
       4859.4536     0.026318150
       4860.7235     0.027183100
       4861.9933     0.023110060
       4863.2632     0.024332040
       4864.5330     0.028489540
       4865.8029     0.025538930
       4867.0727     0.020253340
       4868.3427     0.025267710
       4869.6125     0.028883920
       4870.8824     0.031818320
       4872.1522     0.032460540
       4873.4221     0.025298720
       4874.6919     0.019792630
       4875.9618     0.018666550
       4877.2316     0.024857740
       4878.5015     0.028303360
       4879.7714     0.026203890
       4881.0412     0.036755880
       4882.3111     0.062106650
       4883.5809     0.085586210
       4884.8509     0.077511290
       4886.1207     0.069662130
       4887.3906     0.061812970
       4888.6604     0.053966840
       4889.9303     0.046117670
       4891.2001     0.038268520
       4892.4700     0.030419360
       4893.7398     0.022573220
       4895.0097     0.014724060
       4896.2795     0.016381420
       4897.5494     0.019893830
       4898.8192     0.021935990
       4900.0891     0.022017290
       4901.3591     0.019250300
       4902.6289     0.014231140
       4903.8988     0.011634820
       4905.1686     0.023781100
       4906.4385     0.038194270
       4907.7083     0.031583750
       4908.9782     0.026379380
       4910.2480     0.032097890
       4911.5179     0.028706280
       4912.7877     0.021145310
       4914.0576     0.018495270
       4915.3274     0.012043150
       4916.5973    0.0075945490
       4917.8671     0.015334000
       4919.1371     0.025827910
       4920.4069     0.027889100
       4921.6768     0.020292190
       4922.9467     0.013254910
       4924.2165     0.011639880
       4925.4864     0.019221100
       4926.7562     0.027393610
       4928.0261     0.025092850
       4929.2959     0.016457900
       4930.5658     0.010787300
       4931.8356     0.011098790
       4933.1055     0.015668240
       4934.3753     0.027868350
       4935.6453     0.035851490
       4936.9151     0.026016310
       4938.1850     0.018656450
       4939.4548     0.019576550
       4940.7247     0.021150590
       4941.9945     0.014291900
       4943.2644     0.012700770
       4944.5343     0.019836850
       4945.8041     0.024521000
       4947.0740     0.028082080
       4948.3438     0.036068310
       4949.6137     0.040632620
       4950.8835     0.029244990
       4952.1535     0.020269510
       4953.4233     0.024910070
       4954.6932     0.020695840
       4955.9630     0.013464630
       4957.2329     0.014694040
       4958.5027     0.014963600
       4959.7726     0.019526580
       4961.0424     0.029512230
       4962.3123     0.028001550
       4963.5821     0.025250800
       4964.8520     0.022792760
       4966.1219     0.020736720
       4967.3917     0.018294980
       4968.6617     0.021299620
       4969.9315     0.026683100
       4971.2014     0.024693940
       4972.4712     0.025892130
       4973.7411     0.029609760
       4975.0109     0.022229670
       4976.2808     0.025477840
       4977.5506     0.032268650
       4978.8205     0.021112050
       4980.0903     0.028496270
       4981.3602     0.076487410
       4982.6300      0.13096070
       4983.8999      0.13650880
       4985.1697     0.087207730
       4986.4397     0.040215150
       4987.7096     0.017944580
       4988.9794     0.015468500
       4990.2493     0.019271590
       4991.5191     0.011950260
       4992.7890     0.015062640
       4994.0588     0.015373190
       4995.3287     0.012450000
       4996.5985     0.022829980
       4997.8684     0.018113480
       4999.1382     0.013982040
       5000.4081     0.022032270
       5001.6779     0.020005310
       5002.9479     0.017862600
       5004.2177     0.025558550
       5005.4876     0.022837750
       5006.7574     0.018741490
       5008.0273     0.022807870
       5009.2972     0.017568000
       5010.5670     0.011996210
       5011.8369     0.017022730
       5013.1067     0.020697360
       5014.3766     0.018490770
       5015.6464     0.018979880
       5016.9163     0.017072410
       5018.1861     0.011060180
       5019.4561     0.020079340
       5020.7259     0.028408030
       5021.9958     0.023413200
       5023.2656     0.021686430
       5024.5355     0.022171310
       5025.8053     0.015102080
       5027.0752     0.027910050
       5028.3450      0.10431400
       5029.6149      0.24486850
       5030.8848      0.36673650
       5032.1546      0.35740910
       5033.4245      0.21009560
       5034.6943     0.075190980
       5035.9643     0.030295660
       5037.2341     0.017219340
       5038.5040     0.016862330
       5039.7738     0.019948680
       5041.0437     0.024760130
       5042.3135     0.029909560
       5043.5834     0.035665510
       5044.8532     0.029938140
       5046.1231     0.020430490
       5047.3929     0.022497440
       5048.6628     0.025595170
       5049.9326     0.022124080
       5051.2025     0.025172260
       5052.4724     0.031367690
       5053.7423     0.029537090
       5055.0122     0.026032150
       5056.2820     0.033583470
       5057.5519     0.035353070
       5058.8217     0.024059920
       5060.0916     0.016539020
       5061.3614     0.023923990
       5062.6313     0.028251220
       5063.9011     0.024632370
       5065.1710     0.026240600
       5066.4408     0.022927250
       5067.7107     0.017064230
       5068.9805     0.018344310
       5070.2505     0.028575770
       5071.5203     0.026901050
       5072.7902     0.017455590
       5074.0601     0.012377250
       5075.3299     0.015800690
       5076.5998     0.023597130
       5077.8696     0.023726420
       5079.1395     0.025469780
       5080.4093     0.027085200
       5081.6792     0.020530940
       5082.9490     0.017436840
       5084.2189     0.027988460
       5085.4887     0.029225170
       5086.7587     0.021734910
       5088.0285     0.020475040
       5089.2984     0.025145150
       5090.5682     0.027554030
       5091.8381     0.019992830
       5093.1079     0.013959270
       5094.3778     0.013894680
       5095.6477     0.013659320
       5096.9175     0.014052140
       5098.1874    0.0087587130
       5099.4572     0.011214260
       5100.7271     0.014664030
       5101.9969     0.017180780
       5103.2669     0.019564680
       5104.5367     0.010453740
       5105.8066     0.011365490
       5107.0764     0.020322240
       5108.3463     0.021332350
       5109.6161     0.014931230
       5110.8860     0.010646230
       5112.1558     0.013971790
       5113.4257     0.014522680
       5114.6955     0.016631570
       5115.9654     0.016481980
       5117.2353     0.020749000
       5118.5051     0.021010570
       5119.7751     0.016055460
       5121.0449     0.014133500
       5122.3148     0.017862600
       5123.5846     0.019042870
       5124.8545     0.013582060
       5126.1243     0.016940000
       5127.3942     0.021076000
       5128.6640     0.017581650
       5129.9339     0.014932090
       5131.2037     0.017521710
       5132.4736     0.014255020
       5133.7434    0.0076908650
       5135.0133     0.014641090
       5136.2831     0.019224630
       5137.5531     0.018254280
       5138.8230     0.010381880
       5140.0928    0.0046243660
       5141.3627     0.016548150
       5142.6325     0.027410610
       5143.9024     0.020877490
       5145.1722     0.011813290
       5146.4421     0.018185420
       5147.7119     0.023335890
       5148.9818     0.023565630
       5150.2516     0.028071120
       5151.5215     0.029091230
       5152.7913     0.025304980
       5154.0613     0.026110530
       5155.3311     0.023772570
       5156.6010     0.026824380
       5157.8708     0.030185820
       5159.1407     0.015738020
       5160.4106     0.012254990
       5161.6804     0.011395110
       5162.9503     0.010409680
       5164.2201     0.012810910
       5165.4900     0.014761980
       5166.7598     0.011540900
       5168.0297     0.014589300
       5169.2995     0.013943150
       5170.5695     0.013124690
       5171.8393     0.014604020
       5173.1092     0.015733470
       5174.3790     0.019499590
       5175.6489     0.021474540
       5176.9187     0.014879740
       5178.1886     0.016421600
       5179.4584     0.018730820
       5180.7283     0.024155290
       5181.9982     0.029955510
       5183.2680     0.027054950
       5184.5379     0.020362520
       5185.8077     0.017574310
       5187.0777     0.013145380
       5188.3475     0.014003950
       5189.6174     0.021527650
       5190.8872     0.019848240
       5192.1571     0.028287640
       5193.4269     0.027032320
       5194.6968     0.028519270
       5195.9666     0.032948580
       5197.2365     0.036195970
       5198.5063     0.031053140
       5199.7762     0.027672030
       5201.0460     0.032078190
       5202.3159     0.030072300
       5203.5858     0.028334910
       5204.8557     0.030758560
       5206.1256     0.020865350
       5207.3954     0.026399290
       5208.6653     0.026930360
       5209.9351     0.028626350
       5211.2050     0.030439480
       5212.4748     0.027259680
       5213.7447     0.028912260
       5215.0145     0.027723790
       5216.2844     0.024728750
       5217.5542     0.023180290
       5218.8241     0.023259430
       5220.0939     0.027405540
       5221.3639     0.034640570
       5222.6337     0.032577440
       5223.9036     0.026007010
       5225.1735     0.017999760
       5226.4433     0.018410180
       5227.7132     0.019337970
       5228.9830     0.016041970
       5230.2529     0.017544550
       5231.5227     0.017945990
       5232.7926     0.018206480
       5234.0624     0.019006860
       5235.3323     0.019994760
       5236.6021     0.023171020
       5237.8721     0.026722310
       5239.1419     0.032054310
       5240.4118     0.028013950
       5241.6816     0.020283890
       5242.9515     0.021530110
       5244.2214     0.018309280
       5245.4912     0.023441590
       5246.7611     0.028188660
       5248.0309     0.018200460
       5249.3008     0.020293080
       5250.5706     0.025125470
       5251.8405     0.021923960
       5253.1103     0.024359110
       5254.3803     0.021560240
       5255.6501     0.022562920
       5256.9200     0.029380090
       5258.1898     0.030730680
       5259.4597     0.036426070
       5260.7295     0.030291430
       5261.9994     0.024093300
       5263.2692     0.029818940
       5264.5391     0.022605550
       5265.8090     0.013727210
       5267.0788     0.024016440
       5268.3487     0.027094740
       5269.6185     0.022261490
       5270.8884     0.019978200
       5272.1583     0.020667770
       5273.4282     0.021386570
       5274.6980     0.029238500
       5275.9679     0.033522770
       5277.2377     0.023759740
       5278.5076     0.021753590
       5279.7774     0.027790530
       5281.0473     0.029124200
       5282.3171     0.028247220
       5283.5870     0.020195450
       5284.8568     0.018095620
       5286.1267     0.027317310
       5287.3966     0.028901730
       5288.6665     0.031941190
       5289.9364     0.032156750
       5291.2062     0.023915150
       5292.4761     0.021698260
       5293.7459     0.031765160
       5295.0158     0.033286750
       5296.2856     0.025307420
       5297.5555     0.029719910
       5298.8253     0.032627150
       5300.0952     0.028260530
       5301.3650     0.029000240
       5302.6349     0.018749270
       5303.9047     0.018535200
       5305.1747     0.029507030
       5306.4445     0.028154510
       5307.7144     0.029036980
       5308.9843     0.037735630
       5310.2541     0.035719770
       5311.5240     0.025940810
       5312.7938     0.024548140
       5314.0637     0.028045770
       5315.3335     0.026958510
       5316.6034     0.020447430
       5317.8732     0.010127570
       5319.1431     0.014000500
       5320.4129     0.019221030
       5321.6829     0.017211920
       5322.9527     0.018277340
       5324.2226     0.021055000
       5325.4924     0.022412410
       5326.7623     0.025191800
       5328.0321     0.022669310
       5329.3020     0.023703790
       5330.5719     0.019054440
       5331.8417     0.022345100
       5333.1116     0.029960900
       5334.3814     0.023611390
       5335.6513     0.017890630
       5336.9211     0.026327430
       5338.1910     0.030936290
       5339.4609     0.020519330
       5340.7308     0.016216320
       5342.0006     0.027272090
       5343.2705     0.033888800
       5344.5403     0.026205060
       5345.8102     0.018732420
       5347.0800     0.018869240
       5348.3499     0.024140880
       5349.6197     0.028162570
       5350.8896     0.026508120
       5352.1595     0.028606050
       5353.4293     0.028841510
       5354.6992     0.024370540
       5355.9691     0.020847920
       5357.2390     0.022592040
       5358.5088     0.024541490
       5359.7787     0.025156940
       5361.0485     0.026884280
       5362.3184     0.026267590
       5363.5882     0.023147000
       5364.8581     0.019016110
       5366.1279     0.021444910
       5367.3978     0.027533500
       5368.6676     0.030339120
       5369.9375     0.027189940
       5371.2073     0.018212920
       5372.4773     0.013956050
       5373.7472     0.017304040
       5375.0170     0.021056870
       5376.2869     0.019754890
       5377.5567     0.018515880
       5378.8266     0.021346700
       5380.0964     0.021175930
       5381.3663     0.015830020
       5382.6361     0.017608520
       5383.9060     0.021829150
       5385.1758     0.024878390
       5386.4457     0.026051210
       5387.7155     0.021284380
       5388.9855     0.024221680
       5390.2553     0.029469290
       5391.5252     0.027587130
       5392.7950     0.020283120
       5394.0649     0.014060800
       5395.3348     0.012672570
       5396.6046     0.012364550
       5397.8745     0.011085060
       5399.1443    0.0084333700
       5400.4142     0.014777220
       5401.6840     0.023610460
       5402.9539     0.022101350
       5404.2237     0.017618630
       5405.4937     0.022497370
       5406.7635     0.026624090
       5408.0334     0.018196120
       5409.3032     0.011909980
       5410.5731     0.020020620
       5411.8429     0.020157010
       5413.1128     0.012345170
       5414.3826     0.014338870
       5415.6525     0.022392730
       5416.9224     0.023012820
       5418.1922     0.022892270
       5419.4621     0.016721150
       5420.7319     0.015395250
       5422.0018     0.017812200
       5423.2717     0.020683320
       5424.5416     0.021667670
       5425.8114     0.018459830
       5427.0813     0.011164860
       5428.3511     0.010174800
       5429.6210     0.014966590
       5430.8908     0.019080840
       5432.1607     0.024993240
       5433.4305     0.022807670
       5434.7004     0.015027240
       5435.9702     0.015753700
       5437.2401     0.027112040
       5438.5100     0.032873060
       5439.7799     0.030870200
       5441.0498     0.029522980
       5442.3196     0.021142840
       5443.5895     0.018389660
       5444.8593     0.025234230
       5446.1292     0.027155280
       5447.3990     0.026637200
       5448.6689     0.023983100
       5449.9387     0.024762590
       5451.2086     0.026314770
       5452.4784     0.027978800
       5453.7483     0.027467760
       5455.0181     0.019121340
       5456.2881     0.013171740
       5457.5579     0.023187130
       5458.8278     0.032569790
       5460.0977     0.030642830
       5461.3675     0.026016950
       5462.6374     0.026260950
       5463.9072     0.029602510
       5465.1771     0.025710690
       5466.4469     0.018745210
       5467.7168     0.024075620
       5468.9866     0.031206570
       5470.2565     0.027303120
       5471.5263     0.028848130
       5472.7963     0.029010710
       5474.0661     0.020953480
       5475.3360     0.020062970
       5476.6058     0.022400150
       5477.8757     0.020195210
       5479.1455     0.018770780
       5480.4154     0.022421430
       5481.6853     0.023963240
       5482.9551     0.020613080
       5484.2250     0.022696020
       5485.4948     0.025627560
       5486.7647     0.021724570
       5488.0345     0.017150290
       5489.3044     0.017949500
       5490.5743     0.022447950
       5491.8442     0.024314820
       5493.1140     0.022863770
       5494.3839     0.022783290
       5495.6537     0.028397050
       5496.9236     0.028309920
       5498.1934     0.020735300
       5499.4633     0.022170370
       5500.7331     0.027091440
       5502.0030     0.023004030
       5503.2729     0.021180360
       5504.5427     0.026429230
       5505.8126     0.022726830
       5507.0825     0.015303720
       5508.3524     0.021676500
       5509.6222     0.029108950
       5510.8921     0.023209460
       5512.1619     0.014298700
       5513.4318     0.015208530
       5514.7016     0.022856910
       5515.9715     0.026490150
       5517.2413     0.024135850
       5518.5112     0.022884140
       5519.7810     0.022111390
       5521.0509     0.018978280
       5522.3207     0.017112560
       5523.5907     0.019818710
       5524.8606     0.020769220
       5526.1304     0.019477400
       5527.4003     0.024489920
       5528.6701     0.027165040
       5529.9400     0.020394740
       5531.2098     0.020573160
       5532.4797     0.023976630
       5533.7495     0.018449780
       5535.0194     0.018084800
       5536.2892     0.018808970
       5537.5591     0.012886530
       5538.8289     0.014065610
       5540.0989     0.016792770
       5541.3687     0.019039010
       5542.6386     0.021608250
       5543.9084     0.021497580
       5545.1783     0.022075750
       5546.4482     0.019983430
       5547.7180     0.019441350
       5548.9879     0.023810490
       5550.2577     0.028346270
       5551.5276     0.029121380
       5552.7974     0.028632310
       5554.0673     0.028346340
       5555.3371     0.030130130
       5556.6070     0.034156780
       5557.8769     0.028737040
       5559.1468     0.022971690
       5560.4166     0.030372640
       5561.6865     0.032685370
       5562.9563     0.027475620
       5564.2262     0.024066020
       5565.4960     0.021471760
       5566.7659     0.020466380
       5568.0358     0.018378280
       5569.3056     0.021372040
       5570.5755     0.021906290
       5571.8453     0.014170150
       5573.1152     0.013523810
       5574.3851     0.016864380
       5575.6550     0.016935830
       5576.9248     0.016583360
       5578.1947     0.016502050
       5579.4645     0.016367760
       5580.7344     0.016275150
       5582.0042     0.016007870
       5583.2741     0.015643120
       5584.5439     0.020315030
       5585.8138     0.028598250
       5587.0836     0.022741920
       5588.3535     0.010403390
       5589.6234     0.013732250
       5590.8933     0.020479710
       5592.1632     0.022312370
       5593.4330     0.024443470
       5594.7029     0.022861440
       5595.9727     0.018756380
       5597.2426     0.014685530
       5598.5124     0.012657670
       5599.7823     0.012112860
       5601.0521     0.018128810
       5602.3220     0.028146450
       5603.5918     0.027383170
       5604.8617     0.024469000
       5606.1315     0.020800770
       5607.4015     0.016736570
       5608.6713     0.013810820
       5609.9412     0.012323330
       5611.2111     0.018261290
       5612.4809     0.028401090
       5613.7508     0.029251920
       5615.0206     0.023254470
       5616.2905     0.020157890
       5617.5603     0.020171870
       5618.8302     0.018891650
       5620.1000     0.017259020
       5621.3699     0.016463810
       5622.6397     0.016792870
       5623.9096     0.021604610
       5625.1795     0.025151420
       5626.4494     0.023637240
       5627.7192     0.017798650
       5628.9891     0.011502330
       5630.2589     0.010687180
       5631.5288     0.014305090
       5632.7987     0.021733340
       5634.0685     0.024734970
       5635.3384     0.020537000
       5636.6082     0.017346630
       5637.8781     0.019051210
       5639.1479     0.022349720
       5640.4178     0.017455360
       5641.6877     0.011671520
       5642.9576     0.012411060
       5644.2274     0.016535130
       5645.4973     0.020152390
       5646.7671     0.023453900
       5648.0370     0.021465630
       5649.3068     0.018141150
       5650.5767     0.023886560
       5651.8465     0.025349420
       5653.1164     0.025513200
       5654.3863     0.026747900
       5655.6561     0.014808540
       5656.9260     0.011425660
       5658.1959     0.018093120
       5659.4658     0.019158690
       5660.7356     0.015696810
       5662.0055     0.019279490
       5663.2753     0.024094120
       5664.5452     0.020864920
       5665.8150     0.018513800
       5667.0849     0.010413660
       5668.3547    0.0020104890
       5669.6246    0.0021702940
       5670.8944     0.010517480
       5672.1643     0.014495990
       5673.4342     0.012479680
       5674.7041     0.013235780
       5675.9740     0.017331930
       5677.2438     0.016611680
       5678.5137     0.011627100
       5679.7835     0.012294740
       5681.0534     0.018892130
       5682.3232     0.014077610
       5683.5931     0.012496720
       5684.8629     0.017443870
       5686.1328     0.021207860
       5687.4026     0.017121200
       5688.6725     0.012994050
       5689.9423    0.0076661890
       5691.2123    0.0044881550
       5692.4821     0.010936020
       5693.7520     0.014775140
       5695.0219    0.0099758080
       5696.2917    0.0068411840
       5697.5616     0.014384670
       5698.8314     0.019888800
       5700.1013     0.018486670
       5701.3711     0.013213180
       5702.6410    0.0043047780
       5703.9108    0.0047434950
       5705.1807     0.013572110
       5706.4505     0.020156110
       5707.7204     0.015773630
       5708.9903    0.0051590130
       5710.2602    0.0093709050
       5711.5300     0.014183590
       5712.7999    0.0084202270
       5714.0697    0.0085631210
       5715.3396     0.011580590
       5716.6095     0.015218830
       5717.8793     0.018317520
       5719.1492     0.011443600
       5720.4190    0.0033595520
       5721.6889    0.0089590350
       5722.9587     0.014927910
       5724.2286     0.012140570
       5725.4985     0.015807840
       5726.7684     0.014902730
       5728.0382    0.0086239320
       5729.3081     0.012752190
       5730.5779     0.012358070
       5731.8478    0.0088391050
       5733.1176    0.0092786630
       5734.3875     0.010575200
       5735.6573     0.010050250
       5736.9272    0.0065010810
       5738.1971    0.0032862330
       5739.4669    0.0069645690
       5740.7368     0.012780080
       5742.0067     0.012597370
       5743.2766    0.0097141280
       5744.5464    0.0097124370
       5745.8163    0.0092201200
       5747.0861    0.0052838200
       5748.3560    0.0064270510
       5749.6258    0.0090649440
       5750.8957    0.0063120360
       5752.1655    0.0082350500
       5753.4354     0.011255390
       5754.7052     0.011617410
       5755.9751    0.0076424180
       5757.2449    0.0065941360
       5758.5149    0.0061202920
       5759.7848    0.0073331580
       5761.0546     0.011376910
       5762.3245     0.010170280
       5763.5943    0.0075127410
       5764.8642    0.0063544380
       5766.1340    0.0050737550
       5767.4039    0.0086303760
       5768.6737     0.014197840
       5769.9436     0.010446420
       5771.2134    0.0087896440
       5772.4833    0.0073048260
       5773.7531    0.0085225930
       5775.0230    0.0076467240
       5776.2929    0.0039882650
       5777.5628    0.0095869620
       5778.8326     0.014079470
       5780.1025    0.0077271460
       5781.3724    0.0078575060
       5782.6422     0.014848330
       5783.9121     0.015300960
       5785.1819    0.0098625550
       5786.4518    0.0086919570
       5787.7216    0.0085906930
       5788.9915     0.011619030
       5790.2613    0.0084395190
       5791.5312    0.0019074120
       5792.8011    0.0066693060
       5794.0710     0.012588440
       5795.3408     0.010145590
       5796.6107     0.013113590
       5797.8805     0.013452280
       5799.1504    0.0042206920
       5800.4202  -0.00046714790
       5801.6901    0.0040386880
       5802.9600    0.0076489340
       5804.2298     0.011562330
       5805.4997     0.011689510
       5806.7695    0.0074680130
       5808.0394    0.0095022390
       5809.3093     0.011386380
       5810.5792    0.0025438860
       5811.8490    0.0084248340
       5813.1189     0.012191100
       5814.3887    0.0068748760
       5815.6586     0.014218190
       5816.9284     0.016691780
       5818.1983     0.014757300
       5819.4681     0.015006210
       5820.7380     0.016329910
       5822.0078     0.013502870
       5823.2777     0.014744780
       5824.5476     0.018996900
       5825.8175     0.014997700
       5827.0874     0.013821680
       5828.3572     0.011940620
       5829.6271     0.011451650
       5830.8969     0.011412240
       5832.1668     0.012107640
       5833.4366     0.010735010
       5834.7065    0.0055151270
       5835.9763    0.0030666700
       5837.2462    0.0094019580
       5838.5160     0.016200660
       5839.7859     0.013601230
       5841.0557    0.0067082650
       5842.3256    0.0091259950
       5843.5955     0.013831840
       5844.8654     0.019482860
       5846.1353     0.017246600
       5847.4051     0.010346730
       5848.6750     0.014812400
       5849.9448     0.015848740
       5851.2147     0.015226370
       5852.4845     0.016793090
       5853.7544     0.020540090
       5855.0242     0.019550610
       5856.2941     0.016933600
       5857.5639     0.018743510
       5858.8338     0.022410600
       5860.1037     0.027722990
       5861.3736     0.025643820
       5862.6434     0.021295130
       5863.9133     0.024021590
       5865.1831     0.028107180
       5866.4530     0.028310630
       5867.7229     0.023819080
       5868.9927     0.026109100
       5870.2626     0.021718780
       5871.5324     0.015026570
       5872.8023     0.018935420
       5874.0721     0.021516950
       5875.3420     0.021420870
       5876.6119     0.018889890
       5877.8818     0.019327650
       5879.1516     0.023937330
       5880.4215     0.024320610
       5881.6913     0.025644880
       5882.9612     0.027413160
       5884.2310     0.023201730
       5885.5009     0.019063680
       5886.7707     0.021453090
       5888.0406     0.020901130
       5889.3105     0.014501110
       5890.5803     0.019927740
       5891.8502     0.033710940
       5893.1201     0.036668100
       5894.3900     0.024318500
       5895.6598     0.023041850
       5896.9297     0.037560190
       5898.1995     0.042208950
       5899.4694     0.035592790
       5900.7392     0.036240700
       5902.0091     0.043148230
       5903.2789     0.048619320
       5904.5488     0.041560430
       5905.8186     0.042055500
       5907.0885     0.044676300
       5908.3583     0.036504920
       5909.6282     0.032283100
       5910.8982     0.033888470
       5912.1680     0.037976660
       5913.4379     0.038586010
       5914.7077     0.042721740
       5915.9776     0.042874630
       5917.2474     0.041414770
       5918.5173     0.044226040
       5919.7871     0.043720220
       5921.0570     0.045724990
       5922.3268     0.048043240
       5923.5967     0.053268480
       5924.8665     0.051703700
       5926.1364     0.047790030
       5927.4063     0.046588590
       5928.6762     0.049195180
       5929.9460     0.050951110
       5931.2159     0.042919140
       5932.4858     0.038300870
       5933.7556     0.035705360
       5935.0255     0.039107940
       5936.2953     0.044296350
       5937.5652     0.041766180
       5938.8350     0.039121840
       5940.1049     0.034913860
       5941.3747     0.028351690
       5942.6446     0.032796000
       5943.9145     0.044164310
       5945.1844     0.044015790
       5946.4542     0.035020050
       5947.7241     0.035395200
       5948.9939     0.036135160
       5950.2638     0.037848580
       5951.5336     0.034496860
       5952.8035     0.030840040
       5954.0734     0.028010460
       5955.3432     0.031254110
       5956.6131     0.035187510
       5957.8829     0.033294100
       5959.1528     0.031371380
       5960.4227     0.032204720
       5961.6926     0.027510780
       5962.9624     0.024812330
       5964.2323     0.026208140
       5965.5021     0.027268210
       5966.7720     0.023887840
       5968.0418     0.017313050
       5969.3117     0.024537360
       5970.5815     0.030399040
       5971.8514     0.026937720
       5973.1212     0.026652730
       5974.3911     0.025596340
       5975.6610     0.024717440
       5976.9308     0.030633380
       5978.2008     0.031357770
       5979.4706     0.026170590
       5980.7405     0.024476840
       5982.0103     0.023588750
       5983.2802     0.025606170
       5984.5500     0.026122820
       5985.8199     0.018763660
       5987.0897     0.024097620
       5988.3596     0.034275790
       5989.6294     0.033537530
       5990.8993     0.030353760
       5992.1691     0.019362440
       5993.4390     0.016543740
       5994.7089     0.020384890
       5995.9788     0.021368920
       5997.2487     0.017648470
       5998.5185     0.011877700
       5999.7884     0.010679400
       6001.0582     0.019670480
       6002.3281     0.021658760
       6003.5979     0.019714360
       6004.8678     0.019551310
       6006.1376     0.019801330
       6007.4075     0.021572390
       6008.6773     0.017699300
       6009.9472     0.019515870
       6011.2171     0.024914960
       6012.4870     0.016787070
       6013.7568     0.014016130
       6015.0267     0.018848810
       6016.2965     0.020319980
       6017.5664     0.014638180
       6018.8363     0.018545850
       6020.1061     0.029163970
       6021.3760     0.026760570
       6022.6458     0.019825320
       6023.9157     0.016169870
       6025.1855     0.015910280
       6026.4554     0.011623160
       6027.7253     0.013776840
       6028.9952     0.017305060
       6030.2650     0.016371510
       6031.5349     0.021164230
       6032.8047     0.017658550
       6034.0746     0.012025950
       6035.3444     0.017707440
       6036.6143     0.015687740
       6037.8841     0.011861360
       6039.1540     0.019181400
       6040.4239     0.022156590
       6041.6937     0.022956030
       6042.9636     0.022568130
       6044.2335     0.018366670
       6045.5034     0.013176150
       6046.7732     0.011888780
       6048.0431     0.016335090
       6049.3129     0.013773810
       6050.5828     0.014280870
       6051.8526     0.017820410
       6053.1225     0.021178470
       6054.3923     0.017621880
       6055.6622     0.012046650
       6056.9320     0.010311110
       6058.2019     0.014484040
       6059.4717     0.012777350
       6060.7416    0.0076261590
       6062.0116     0.011600570
       6063.2814     0.014789730
       6064.5513     0.014933150
       6065.8211     0.012474510
       6067.0910    0.0099015960
       6068.3608     0.015587910
       6069.6307     0.012811020
       6070.9005    0.0094080540
       6072.1704     0.012360770
       6073.4402     0.015982960
       6074.7101     0.016811610
       6075.9799     0.017928830
       6077.2498     0.019071970
       6078.5197     0.018065920
       6079.7896     0.014587000
       6081.0595     0.015927690
       6082.3293     0.017131760
       6083.5992     0.015649550
       6084.8690     0.014645830
       6086.1389     0.012205500
       6087.4087     0.012919140
       6088.6786     0.012507500
       6089.9484     0.011827850
       6091.2183     0.011060280
       6092.4881     0.014871900
       6093.7580     0.019723390
       6095.0279     0.014618520
       6096.2978     0.011685290
       6097.5676     0.016828390
       6098.8375     0.016806240
       6100.1073     0.014393420
       6101.3772     0.013927910
       6102.6471     0.010080120
       6103.9169     0.012928710
       6105.1868     0.017318990
       6106.4566     0.016758120
       6107.7265     0.014183700
       6108.9963     0.016053730
       6110.2662     0.015459850
       6111.5361     0.016103980
       6112.8060     0.024174830
       6114.0758     0.023385270
       6115.3457     0.015757840
       6116.6155     0.012949270
       6117.8854     0.017487480
       6119.1552     0.022523560
       6120.4251     0.025029380
       6121.6949     0.020785540
       6122.9648     0.014591680
       6124.2347     0.012193610
       6125.5045     0.010249510
       6126.7744     0.016733800
       6128.0442     0.017679570
       6129.3142     0.015894620
       6130.5840     0.016010170
       6131.8539     0.019806650
       6133.1237     0.022480650
       6134.3936     0.016913310
       6135.6634     0.013949530
       6136.9333     0.016956120
       6138.2031     0.012660610
       6139.4730     0.011546550
       6140.7428     0.012955210
       6142.0127     0.012395220
       6143.2825     0.015142990
       6144.5524     0.018463210
       6145.8224     0.015450440
       6147.0922     0.013188260
       6148.3621     0.015582260
       6149.6319     0.018809250
       6150.9018     0.020850960
       6152.1716     0.021418650
       6153.4415     0.017863970
       6154.7113     0.018719650
       6155.9812     0.023146650
       6157.2510     0.019052040
       6158.5209     0.017226400
       6159.7907     0.020776520
       6161.0606     0.021359280
       6162.3305     0.017132840
       6163.6004     0.013494590
       6164.8702     0.015463310
       6166.1401     0.024383710
       6167.4100     0.024592810
       6168.6798     0.018711010
       6169.9497     0.017907120
       6171.2195     0.019709610
       6172.4894     0.023563230
       6173.7592     0.025362940
       6175.0291     0.025517280
       6176.2989     0.025355350
       6177.5688     0.025711680
       6178.8387     0.030271960
       6180.1086     0.031611920
       6181.3784     0.027373170
       6182.6483     0.026272130
       6183.9181     0.022643850
       6185.1880     0.018992900
       6186.4578     0.023715120
       6187.7277     0.023690270
       6188.9976     0.013346810
       6190.2674     0.014163050
       6191.5373     0.021423760
       6192.8071     0.020780960
       6194.0770     0.017189880
       6195.3468     0.013518770
       6196.6168     0.013124180
       6197.8866     0.017711010
       6199.1565     0.016662020
       6200.4263     0.014190500
       6201.6962     0.018559290
       6202.9660     0.019578260
       6204.2359     0.017344710
       6205.5057     0.018660120
       6206.7756     0.019891010
       6208.0454     0.018505510
       6209.3153     0.018415230
       6210.5852     0.022392780
       6211.8550     0.018732450
       6213.1250     0.011623560
       6214.3948     0.015579790
       6215.6647     0.022005720
       6216.9345     0.022671640
       6218.2044     0.020646110
       6219.4742     0.014139770
       6220.7441     0.014910440
       6222.0139     0.024004890
       6223.2838     0.029330640
       6224.5536     0.029135760
       6225.8235     0.024534180
       6227.0933     0.025371960
       6228.3632     0.029066610
       6229.6331     0.027150540
       6230.9030     0.028873460
       6232.1729     0.033076170
       6233.4427     0.032345290
       6234.7126     0.031800520
       6235.9824     0.033574450
       6237.2523     0.040909620
       6238.5221     0.047916430
       6239.7920     0.043300790
       6241.0618     0.038534790
       6242.3317     0.045967780
       6243.6015     0.054288670
       6244.8714     0.056456190
       6246.1413     0.058716760
       6247.4112     0.060604590
       6248.6810     0.056123970
       6249.9509     0.053520320
       6251.2207     0.061253960
       6252.4906     0.065689000
       6253.7605     0.064395960
       6255.0303     0.067102070
       6256.3002     0.069850910
       6257.5700     0.071143150
       6258.8399     0.075784750
       6260.1097     0.080445300
       6261.3796     0.080993310
       6262.6494     0.078558780
       6263.9194     0.077845650
       6265.1892     0.080499490
       6266.4591     0.082219820
       6267.7289     0.082244490
       6268.9988     0.082015620
       6270.2686     0.082640710
       6271.5385     0.085604950
       6272.8083     0.086653720
       6274.0782     0.084532950
       6275.3481     0.090710100
       6276.6179     0.099267800
       6277.8878     0.097907480
       6279.1576     0.098763020
       6280.4276      0.10222560
       6281.6974     0.099583130
       6282.9673      0.10310950
       6284.2371      0.11143780
       6285.5070      0.10992960
       6286.7768      0.10521230
       6288.0467      0.10987570
       6289.3165      0.12159380
       6290.5864      0.12431780
       6291.8562      0.12103640
       6293.1261      0.12331490
       6294.3959      0.12371360
       6295.6658      0.11939280
       6296.9358      0.11953300
       6298.2056      0.12439860
       6299.4755      0.12822220
       6300.7453      0.13278860
       6302.0152      0.13730460
       6303.2850      0.14026750
       6304.5549      0.14364590
       6305.8247      0.14887620
       6307.0946      0.15486720
       6308.3644      0.16100120
       6309.6343      0.16398720
       6310.9041      0.16467240
       6312.1740      0.16456020
       6313.4439      0.16441200
       6314.7138      0.16905880
       6315.9836      0.17553340
       6317.2535      0.17964580
       6318.5234      0.18113790
       6319.7932      0.18276580
       6321.0631      0.18226750
       6322.3329      0.17615330
       6323.6028      0.17668860
       6324.8726      0.18273880
       6326.1425      0.18325360
       6327.4123      0.18697920
       6328.6822      0.19951910
       6329.9521      0.20824390
       6331.2220      0.20788430
       6332.4918      0.20189200
       6333.7617      0.18989810
       6335.0315      0.17318100
       6336.3014      0.15281950
       6337.5712      0.15147120
       6338.8411      0.15701490
       6340.1110      0.14880580
       6341.3808      0.14099390
       6342.6507      0.13607560
       6343.9205      0.13752990
       6345.1904      0.14466140
       6346.4602      0.14595380
       6347.7302      0.13917000
       6349.0000      0.13303410
       6350.2699      0.13389710
       6351.5397      0.13182650
       6352.8096      0.12674980
       6354.0794      0.12488970
       6355.3493      0.12460680
       6356.6191      0.12550410
       6357.8890      0.12491780
       6359.1588      0.12413600
       6360.4287      0.11596530
       6361.6986     0.099253710
       6362.9684     0.089724150
       6364.2384      0.10658900
       6365.5082      0.13675670
       6366.7781      0.14798120
       6368.0479      0.13564160
       6369.3178      0.11799330
       6370.5876      0.11288570
       6371.8575      0.11299130
       6373.1273      0.11464780
       6374.3972      0.11393070
       6375.6670      0.11192030
       6376.9369      0.10234900
       6378.2067     0.098702930
       6379.4766      0.10089640
       6380.7465      0.10154670
       6382.0164      0.10123040
       6383.2863      0.10209640
       6384.5561     0.097001240
       6385.8260     0.096548450
       6387.0958     0.095136490
       6388.3657     0.097223730
       6389.6355     0.099894110
       6390.9054     0.098778280
       6392.1752      0.10390540
       6393.4451      0.10873420
       6394.7149      0.10793830
       6395.9848      0.10057830
       6397.2547     0.089028750
       6398.5246     0.086270420
       6399.7944     0.086022680
       6401.0643     0.085172560
       6402.3341     0.081115080
       6403.6040     0.073805690
       6404.8739     0.071596280
       6406.1437     0.070841250
       6407.4136     0.066537010
       6408.6834     0.064006360
       6409.9533     0.062916440
       6411.2231     0.062927370
       6412.4930     0.066591020
       6413.7628     0.076020120
       6415.0328     0.073961140
       6416.3026     0.066678820
       6417.5725     0.062270740
       6418.8423     0.058939640
       6420.1122     0.059550900
       6421.3820     0.057152940
       6422.6519     0.052711550
       6423.9217     0.053114010
       6425.1916     0.051651200
       6426.4615     0.050667360
       6427.7313     0.050559060
       6429.0012     0.046287810
       6430.2710     0.045470540
       6431.5410     0.041929010
       6432.8108     0.035356910
       6434.0807     0.033290630
       6435.3505     0.032835050
       6436.6204     0.032276920
       6437.8902     0.033744370
       6439.1601     0.041120350
       6440.4299     0.043494560
       6441.6998     0.039912560
       6442.9696     0.036030180
       6444.2395     0.031803000
       6445.5093     0.033404600
       6446.7792     0.037458230
       6448.0492     0.038690650
       6449.3190     0.037926980
       6450.5889     0.038319810
       6451.8587     0.034957350
       6453.1286     0.031393230
       6454.3984     0.033834000
       6455.6683     0.033967620
       6456.9381     0.026009500
       6458.2080     0.020726370
       6459.4778     0.022413940
       6460.7477     0.029102430
       6462.0175     0.034092490
       6463.2874     0.033892010
       6464.5573     0.033156040
       6465.8272     0.030029000
       6467.0970     0.029190520
       6468.3669     0.027562030
       6469.6368     0.023018330
       6470.9066     0.022039720
       6472.1765     0.026838040
       6473.4463     0.033052450
       6474.7162     0.030742220
       6475.9860     0.023042250
       6477.2559     0.021456300
       6478.5257     0.025330900
       6479.7956     0.024856060
       6481.0654     0.023688980
       6482.3354     0.026159060
       6483.6052     0.024543920
       6484.8751     0.023590400
       6486.1449     0.030483900
       6487.4148     0.035261090
       6488.6846     0.033157600
       6489.9545     0.025834190
       6491.2244     0.022998280
       6492.4942     0.023541610
       6493.7641     0.020822310
       6495.0339     0.018948950
       6496.3038     0.016447500
       6497.5736     0.010844100
       6498.8436     0.010408510
       6500.1134     0.014115530
       6501.3833     0.024118640
       6502.6531     0.021291080
       6503.9230     0.013681610
       6505.1928     0.016811860
       6506.4627     0.020352930
       6507.7325     0.025091760
       6509.0024     0.022795390
       6510.2723     0.022094240
       6511.5421     0.024827710
       6512.8120     0.022541510
       6514.0818     0.018474740
       6515.3518     0.016489710
       6516.6216     0.024929500
       6517.8915     0.026071250
       6519.1613     0.024728040
       6520.4312     0.022009050
       6521.7010     0.026165430
       6522.9709     0.030235560
       6524.2407     0.023384320
       6525.5106     0.020842370
       6526.7804     0.024896840
       6528.0503     0.024956810
       6529.3201     0.029768140
       6530.5900     0.024220380
       6531.8600     0.013423960
       6533.1298     0.017239240
       6534.3997     0.022373110
       6535.6695     0.023269360
       6536.9394     0.024829180
       6538.2092     0.024623590
       6539.4791     0.023212830
       6540.7489     0.021576360
       6542.0188     0.021539070
       6543.2886     0.019788770
       6544.5585     0.020205780
       6545.8283     0.023207730
       6547.0982     0.024537820
       6548.3680     0.025508670
       6549.6380     0.025336780
       6550.9078     0.023055970
       6552.1777     0.018546650
       6553.4476     0.014131050
       6554.7174     0.017747550
       6555.9873     0.026846270
       6557.2571     0.026010410
       6558.5270     0.017675210
       6559.7968     0.012178710
       6561.0667     0.012253610
       6562.3365     0.015803910
       6563.6064     0.021908170
       6564.8762     0.022795920
       6566.1462     0.023158460
       6567.4160     0.024496190
       6568.6859     0.020207350
       6569.9557     0.016852420
       6571.2256     0.015850370
       6572.4954     0.019280980
       6573.7653     0.022179660
       6575.0352     0.018378810
       6576.3050     0.013744830
       6577.5749     0.023629230
       6578.8447     0.043075090
       6580.1146     0.044516350
       6581.3844     0.034043330
       6582.6544     0.021489260
       6583.9242     0.019221920
       6585.1941     0.022307030
       6586.4639     0.021420430
       6587.7338     0.022349800
       6589.0036     0.018295510
       6590.2735     0.042342580
       6591.5433      0.12488340
       6592.8132      0.26666460
       6594.0830      0.35754290
       6595.3529      0.31616680
       6596.6228      0.17425400
       6597.8926     0.063620540
       6599.1626     0.028339680
       6600.4324     0.024557490
       6601.7023     0.020642300
       6602.9721     0.019120700
       6604.2420     0.023247300
       6605.5118     0.022476030
       6606.7817     0.022171280
       6608.0515     0.024891410
       6609.3214     0.023635810
       6610.5912     0.020639590
       6611.8611     0.034284690
       6613.1309     0.051777030
       6614.4008     0.061575230
       6615.6706     0.061855190
       6616.9406     0.047693160
       6618.2105     0.025643420
       6619.4803     0.022360850
       6620.7502     0.021029360
       6622.0200     0.016318540
       6623.2899     0.018926220
       6624.5597     0.018642410
       6625.8296     0.013130980
       6627.0994     0.013197640
       6628.3693     0.018480110
       6629.6391     0.018111730
       6630.9090     0.019213900
       6632.1788     0.020784450
       6633.4488     0.018405820
       6634.7186     0.015027920
       6635.9885     0.018568430
       6637.2583     0.021393780
       6638.5282     0.023287040
       6639.7981     0.021891940
       6641.0679     0.016805210
       6642.3378     0.013727490
       6643.6076     0.016341190
       6644.8775     0.019811780
       6646.1473     0.013142160
       6647.4172    0.0098521860
       6648.6870     0.011363090
       6649.9570     0.013436680
       6651.2268     0.017356760
       6652.4967     0.013129800
       6653.7665     0.011835050
       6655.0364     0.013711940
       6656.3062     0.012277350
       6657.5761     0.013741220
       6658.8459     0.012286320
       6660.1158     0.014266730
       6661.3857     0.020032720
       6662.6555     0.018100890
       6663.9254     0.014076940
       6665.1952     0.017854540
       6666.4652     0.020508190
       6667.7350     0.018017020
       6669.0049     0.014394270
       6670.2747     0.017946860
       6671.5446     0.019277770
       6672.8144     0.020435520
       6674.0843     0.012106150
       6675.3541    0.0092617310
       6676.6240    0.0096937490
       6677.8938     0.010253590
       6679.1637     0.011618730
       6680.4335     0.012583240
       6681.7034     0.011636920
       6682.9734     0.015915990
       6684.2432     0.019880410
       6685.5131     0.016857510
       6686.7829     0.012420770
       6688.0528     0.012882400
       6689.3226     0.013538680
       6690.5925     0.015092260
       6691.8623     0.019344630
       6693.1322     0.019101940
       6694.4020     0.016956620
       6695.6719     0.014383690
       6696.9417     0.017810280
       6698.2116     0.017979700
       6699.4814     0.017431510
       6700.7514     0.021877600
       6702.0212     0.024659540
       6703.2911     0.018730460
       6704.5610     0.014209190
       6705.8308     0.012938670
       6707.1007     0.013604000
       6708.3705     0.017662200
       6709.6404     0.019515780
       6710.9102     0.023263280
       6712.1801     0.021876270
       6713.4499     0.014248430
       6714.7198     0.011042240
       6715.9896     0.014135780
       6717.2596     0.011824800
       6718.5294    0.0062640610
       6719.7993    0.0080579100
       6721.0691    0.0098208430
       6722.3390     0.015404200
       6723.6088     0.018439750
       6724.8787     0.015143790
       6726.1486     0.015961950
       6727.4184     0.017101360
       6728.6883     0.016769980
       6729.9581     0.016988490
       6731.2280     0.016162910
       6732.4978     0.013912440
       6733.7678     0.013177320
       6735.0376     0.011846470
       6736.3075     0.010545800
       6737.5773     0.013175980
       6738.8472     0.013959920
       6740.1170     0.014228140
       6741.3869     0.012047630
       6742.6567    0.0071847050
       6743.9266    0.0089880220
       6745.1964     0.020716180
       6746.4663     0.035879070
       6747.7362     0.046859860
       6749.0060     0.051835720
       6750.2760     0.045091350
       6751.5458     0.023257610
       6752.8157     0.012496380
       6754.0855     0.014047370
       6755.3554     0.011663640
       6756.6252     0.011936050
       6757.8951     0.014850800
       6759.1649     0.015042570
       6760.4348     0.018801840
       6761.7046     0.031790330
       6762.9745     0.042694930
       6764.2443     0.039906640
       6765.5142     0.029329240
       6766.7840     0.020530900
       6768.0540     0.014667390
       6769.3239     0.013115610
       6770.5937     0.016238530
       6771.8636     0.015521750
       6773.1334     0.016724660
       6774.4033     0.014572830
       6775.6731    0.0092710870
       6776.9430     0.010064380
       6778.2128    0.0082198500
       6779.4827    0.0059415720
       6780.7525     0.010997510
       6782.0224     0.013148110
       6783.2922     0.013001520
       6784.5622     0.014493560
       6785.8320     0.012073210
       6787.1019    0.0090072070
       6788.3717    0.0099921870
       6789.6416     0.013838140
       6790.9115     0.016259640
       6792.1813     0.016003430
       6793.4512     0.015851130
       6794.7210     0.015879010
       6795.9909     0.015576590
       6797.2607     0.016633880
       6798.5306     0.014221750
       6799.8004     0.011782580
       6801.0704     0.013148210
       6802.3402     0.015534220
       6803.6101     0.015510760
       6804.8799     0.011709120
       6806.1498     0.010691380
       6807.4196     0.012511840
       6808.6895     0.012148490
       6809.9593     0.014971710
       6811.2292     0.018683090
       6812.4991     0.017315810
       6813.7689     0.013760890
       6815.0388     0.011906960
       6816.3086     0.013021440
       6817.5786     0.014189960
       6818.8484     0.014873070
       6820.1183     0.011871910
       6821.3881     0.010451710
       6822.6580    0.0093791220
       6823.9278     0.010170270
       6825.1977    0.0098622090
       6826.4675     0.010316050
       6827.7374     0.012881850
       6829.0072     0.015048470
       6830.2771    0.0069460650
       6831.5469    0.0025664430
       6832.8168     0.014065060
       6834.0867     0.013460750
       6835.3566    0.0066671040
       6836.6265     0.016148130
       6837.8963     0.021763880
       6839.1662     0.010795590
       6840.4360    0.0078819100
       6841.7059     0.015364430
       6842.9757     0.018424220
       6844.2456     0.013258170
       6845.5154    0.0091190510
       6846.7853     0.011341010
       6848.0551     0.013168880
       6849.3250     0.011090800
       6850.5948     0.011379360
       6851.8648     0.011920580
       6853.1346     0.011318010
       6854.4045     0.010561640
       6855.6744    0.0098051980
       6856.9442    0.0098836220
       6858.2141     0.011630550
       6859.4839     0.011356090
       6860.7538     0.012180650
       6862.0236     0.010379710
       6863.2935    0.0068866630
       6864.5633    0.0093821900
       6865.8332     0.022051600
       6867.1030     0.033601160
       6868.3730     0.028722750
       6869.6428     0.017260530
       6870.9127     0.011471630
       6872.1825    0.0097071810
       6873.4524     0.012464510
       6874.7222     0.016394270
       6875.9921     0.011031350
       6877.2620    0.0060051590
       6878.5318    0.0086116790
       6879.8017    0.0058580570
       6881.0715    0.0037816120
       6882.3414    0.0095576180
       6883.6112    0.0094800900
       6884.8812    0.0069512780
       6886.1510     0.010806160
       6887.4209    0.0098229310
       6888.6907    0.0052642890
       6889.9606    0.0084046800
       6891.2304     0.011455510
       6892.5003     0.012075990
       6893.7701     0.011926740
       6895.0400     0.010700110
       6896.3098     0.011791400
       6897.5797    0.0098964990
       6898.8496    0.0058244880
       6900.1194     0.010261790
       6901.3894     0.017333170
       6902.6592     0.016875910
       6903.9291     0.013668560
       6905.1989     0.012698720
       6906.4688     0.013111880
       6907.7386     0.013956070
       6909.0085     0.015315120
       6910.2783     0.010207740
       6911.5482    0.0046412150
       6912.8180    0.0097190460
       6914.0879     0.012707520
       6915.3577     0.011238260
       6916.6276     0.013131150
       6917.8975     0.014946370
       6919.1674     0.016646380
       6920.4373     0.015901600
       6921.7071    0.0087720740
       6922.9770    0.0043552950
       6924.2468     0.013279500
       6925.5167     0.024126590
       6926.7865     0.019596460
       6928.0564     0.011165960
       6929.3262     0.011624100
       6930.5961     0.011683200
       6931.8659     0.011038580
       6933.1358     0.014402450
       6934.4056     0.012258630
       6935.6756    0.0046118130
       6936.9454    0.0041295700
       6938.2153    0.0099134170
       6939.4852     0.014627290
       6940.7550     0.021078580
       6942.0249     0.022375890
       6943.2947     0.013838750
       6944.5646    0.0088742900
       6945.8344    0.0093810730
       6947.1043    0.0085452650
       6948.3741    0.0083193150
       6949.6440     0.012877310
       6950.9138     0.018588970
       6952.1838     0.018755670
       6953.4536     0.015007240
       6954.7235     0.013104310
       6955.9933     0.014531050
       6957.2632     0.015769660
       6958.5330     0.015984890
       6959.8029     0.018694180
       6961.0728     0.018705480
       6962.3426     0.012986090
       6963.6125     0.012054520
       6964.8823     0.015769220
       6966.1522     0.015727330
       6967.4220     0.013133780
       6968.6920     0.013574980
       6969.9618     0.012436950
       6971.2317     0.010614100
       6972.5015     0.014166720
       6973.7714     0.015509000
       6975.0412     0.010694360
       6976.3111    0.0044501610
       6977.5809    0.0036244520
       6978.8508    0.0063980350
       6980.1206     0.012531950
       6981.3905     0.017690770
       6982.6604     0.014013970
       6983.9302     0.012605330
       6985.2001     0.012476110
       6986.4700     0.010135550
       6987.7399     0.011753500
       6989.0097     0.013903100
       6990.2796     0.010798720
       6991.5494     0.010905150
       6992.8193     0.015326140
       6994.0891     0.011285410
       6995.3590    0.0075853540
       6996.6288    0.0080773570
       6997.8987     0.010554660
       6999.1685     0.014331640
       7000.4384     0.015020770
       7001.7082     0.012753920
       7002.9782    0.0086557260
       7004.2481    0.0067672310
       7005.5179     0.011554570
       7006.7878     0.017116310
       7008.0576     0.015737090
       7009.3275    0.0097676700
       7010.5973    0.0063853580
       7011.8672    0.0080396590
       7013.1370     0.010287220
       7014.4069     0.011166670
       7015.6767     0.012194060
       7016.9466     0.011525070
       7018.2164    0.0096981640
       7019.4864    0.0093429440
       7020.7562    0.0096818630
       7022.0261    0.0098663310
       7023.2959     0.013632510
       7024.5658     0.018894380
       7025.8357     0.016125110
       7027.1055     0.010950950
       7028.3754     0.010837890
       7029.6452     0.013698270
       7030.9151     0.017297710
       7032.1849     0.017296610
       7033.4548     0.014717980
       7034.7246     0.016908060
       7035.9946     0.021472790
       7037.2644     0.017477980
       7038.5343     0.016822650
       7039.8041     0.018344340
       7041.0740     0.014013920
       7042.3438     0.015619400
       7043.6137     0.019967340
       7044.8835     0.019053590
       7046.1534     0.014991820
       7047.4233     0.012320250
       7048.6931     0.012019110
       7049.9630     0.013467010
       7051.2328     0.016473430
       7052.5027     0.012847290
       7053.7726    0.0069792090
       7055.0425     0.013770640
       7056.3123     0.021333740
       7057.5822     0.014329510
       7058.8520     0.011360640
       7060.1219     0.012224440
       7061.3917    0.0096153780
       7062.6616     0.011275110
       7063.9314     0.012097940
       7065.2013     0.011105390
       7066.4711     0.012224720
       7067.7410     0.011460690
       7069.0109     0.015550010
       7070.2808     0.019540820
       7071.5507     0.016933250
       7072.8205     0.015775580
       7074.0904     0.015886630
       7075.3602     0.013289580
       7076.6301     0.011375400
       7077.8999    0.0099664240
       7079.1698    0.0074749350
       7080.4396    0.0048282280
       7081.7095    0.0045047960
       7082.9793    0.0068310330
       7084.2492     0.010012480
       7085.5190     0.012143330
       7086.7890    0.0069192440
       7088.0588     0.010345880
       7089.3287     0.020041170
       7090.5986     0.018582050
       7091.8684    0.0091538210
       7093.1383    0.0079751220
       7094.4081     0.012885520
       7095.6780     0.012534370
       7096.9478     0.010825550
       7098.2177     0.013427210
       7099.4875     0.014787430
       7100.7574     0.015566330
       7102.0272     0.014432640
       7103.2972     0.011926670
       7104.5670     0.011701550
       7105.8369     0.014400170
       7107.1067     0.015841780
       7108.3766     0.016650870
       7109.6464     0.015085510
       7110.9163     0.010074350
       7112.1862     0.012974830
       7113.4560     0.019339820
       7114.7259     0.021326420
       7115.9957     0.019925060
       7117.2656     0.013345860
       7118.5354    0.0060082800
       7119.8053     0.010703020
       7121.0752     0.014704270
       7122.3451     0.012920810
       7123.6149     0.010187740
       7124.8848     0.011897730
       7126.1546    0.0089801800
       7127.4245    0.0061816660
       7128.6943    0.0093438700
       7129.9642     0.013061840
       7131.2340     0.015331410
       7132.5039     0.014027040
       7133.7738     0.012070740
       7135.0436     0.011354610
       7136.3135     0.014180680
       7137.5834     0.016819620
       7138.8533     0.011527070
       7140.1231    0.0088731640
       7141.3930     0.011504120
       7142.6628     0.013188880
       7143.9327     0.014628640
       7145.2025     0.013039600
       7146.4724     0.016850270
       7147.7422     0.022211200
       7149.0121     0.021481690
       7150.2819     0.015746630
       7151.5518     0.015282500
       7152.8216     0.014729050
       7154.0916     0.012979620
       7155.3615     0.011645170
       7156.6313     0.013255900
       7157.9012     0.014896590
       7159.1710     0.016560940
       7160.4409     0.019206140
       7161.7107     0.018110270
       7162.9806     0.016248320
       7164.2504     0.013351550
       7165.5203     0.014963590
       7166.7901     0.021407540
       7168.0600     0.021637360
       7169.3298     0.024452020
       7170.5998     0.029941410
       7171.8696     0.024829920
       7173.1395     0.015724400
       7174.4093     0.015932710
       7175.6792     0.020605220
       7176.9491     0.017043330
       7178.2189     0.016010280
       7179.4888     0.015525410
       7180.7586     0.018603500
       7182.0285     0.019600400
       7183.2983     0.017987550
       7184.5682     0.017115730
       7185.8380     0.010995340
       7187.1080     0.011481630
       7188.3778     0.016142860
       7189.6477     0.016707200
       7190.9175     0.012780290
       7192.1874     0.011594130
       7193.4572     0.016396110
       7194.7271     0.011879440
       7195.9969     0.010352410
       7197.2668     0.016427690
       7198.5367     0.017938220
       7199.8065     0.015704710
       7201.0764     0.012687910
       7202.3462     0.010143350
       7203.6161    0.0066615720
       7204.8860    0.0074980310
       7206.1559    0.0099012270
       7207.4257     0.015972950
       7208.6956     0.018348320
       7209.9654     0.022293270
       7211.2353     0.023395430
       7212.5051     0.017338370
       7213.7750     0.014825910
       7215.0448     0.012831750
       7216.3147     0.019192670
       7217.5845     0.021450080
       7218.8544     0.012820820
       7220.1243     0.010715130
       7221.3942     0.010355410
       7222.6641     0.013261370
       7223.9339     0.014060240
       7225.2038     0.010785700
       7226.4736     0.017430200
       7227.7435     0.017431530
       7229.0133     0.016269340
       7230.2832     0.018605490
       7231.5530     0.017610030
       7232.8229     0.016567620
       7234.0927     0.018515740
       7235.3626     0.015525470
       7236.6324     0.011795250
       7237.9024     0.012483200
       7239.1722     0.016483530
       7240.4421     0.026616040
       7241.7120     0.028633340
       7242.9818     0.017908270
       7244.2517    0.0080308310
       7245.5215     0.013756950
       7246.7914     0.030673590
       7248.0612     0.036266540
       7249.3311     0.029346930
       7250.6009     0.023810370
       7251.8708     0.019153110
       7253.1406     0.012343840
       7254.4106     0.022634920
       7255.6804     0.036629750
       7256.9503     0.040637750
       7258.2201     0.038718070
       7259.4900     0.030890420
       7260.7598     0.025258700
       7262.0297     0.027162690
       7263.2996     0.030161400
       7264.5694     0.044758680
       7265.8393     0.070015920
       7267.1091     0.056327070
       7268.3790     0.033205290
       7269.6488     0.027790940
       7270.9187     0.028905970
       7272.1886     0.030571160
       7273.4585     0.022762790
       7274.7283     0.013296750
       7275.9982     0.011217700
       7277.2680     0.020361000
       7278.5379     0.049196230
       7279.8077     0.059223850
       7281.0776     0.049165890
       7282.3474     0.027790210
       7283.6173     0.017255770
       7284.8872     0.018542700
       7286.1570     0.031225750
       7287.4269     0.052845310
       7288.6968     0.049501010
       7289.9667     0.040888860
       7291.2365     0.033693440
       7292.5064     0.033350260
       7293.7762     0.038787550
       7295.0461     0.038053680
       7296.3159     0.040850650
       7297.5858     0.044119140
       7298.8556     0.046685740
       7300.1255     0.048805130
       7301.3953     0.047036480
       7302.6652     0.048390100
       7303.9350     0.050937950
       7305.2050     0.051742780
       7306.4749     0.059086140
       7307.7447     0.063602750
       7309.0146     0.061158470
       7310.2844     0.065046440
       7311.5543     0.064960870
       7312.8241     0.066366970
       7314.0940     0.062780950
       7315.3638     0.060514290
       7316.6337     0.059133660
       7317.9035     0.076687870
       7319.1734     0.085933920
       7320.4432     0.082701180
       7321.7132     0.077390240
       7322.9830     0.080026570
       7324.2529     0.085138880
       7325.5228     0.085654240
       7326.7926     0.075630340
       7328.0625     0.070256560
       7329.3323     0.066303420
       7330.6022     0.066340850
       7331.8720     0.071838070
       7333.1419     0.066656950
       7334.4117     0.059526470
       7335.6816     0.056483870
       7336.9514     0.058259220
       7338.2213     0.052531230
       7339.4912     0.034693050
       7340.7611     0.038736220
       7342.0309     0.071844580
       7343.3008     0.096034500
       7344.5706     0.098892350
       7345.8405     0.076631050
       7347.1104     0.055389260
       7348.3802     0.059815770
       7349.6501     0.066347260
       7350.9199     0.061155110
       7352.1898     0.061276980
       7353.4596     0.070460690
       7354.7295     0.069568360
       7355.9994     0.065795310
       7357.2693     0.066796500
       7358.5391     0.067968620
       7359.8090     0.071035190
       7361.0788     0.074611460
       7362.3487     0.068115580
       7363.6185     0.045417890
       7364.8884     0.041926290
       7366.1582     0.036234810
       7367.4281     0.028406760
       7368.6980     0.018924530
       7369.9678     0.029757810
       7371.2377     0.049126830
       7372.5076     0.055325610
       7373.7775     0.048796320
       7375.0473     0.044209960
       7376.3172     0.039562080
       7377.5870     0.030715890
       7378.8569     0.035136260
       7380.1267     0.036403700
       7381.3966     0.038368900
       7382.6664     0.034410350
       7383.9363     0.032326160
       7385.2061     0.031773910
       7386.4760     0.033008780
       7387.7458     0.035523680
       7389.0158     0.032556790
       7390.2857     0.027531780
       7391.5555     0.030704570
       7392.8254     0.029390300
       7394.0952     0.030349140
       7395.3651     0.035218860
       7396.6349     0.034738340
       7397.9048     0.032848920
       7399.1746     0.025761950
       7400.4445     0.023657640
       7401.7143     0.028878800
       7402.9842     0.037843820
       7404.2540     0.047073160
       7405.5239     0.044222260
       7406.7938     0.037353350
       7408.0637     0.030916500
       7409.3335     0.031834460
       7410.6034     0.027166190
       7411.8733     0.023368520
       7413.1431     0.022900230
       7414.4130     0.026603530
       7415.6828     0.025510960
       7416.9527     0.024667210
       7418.2225     0.032269060
       7419.4924     0.034878190
       7420.7622     0.026122460
       7422.0321     0.021771290
       7423.3020     0.024465800
       7424.5719     0.023687450
       7425.8417     0.020453690
       7427.1116     0.021694270
       7428.3814     0.020003350
       7429.6513     0.017164280
       7430.9211     0.016867400
       7432.1910     0.021542200
       7433.4609     0.023073830
       7434.7307     0.018039700
       7436.0006     0.014312720
       7437.2704     0.013221760
       7438.5403     0.016567870
       7439.8102     0.021048760
       7441.0801     0.026949950
       7442.3499     0.029194510
       7443.6198     0.030340120
       7444.8896     0.024412430
       7446.1595     0.020063390
       7447.4293     0.022796660
       7448.6992     0.022900250
       7449.9690     0.021716890
       7451.2389     0.014950050
       7452.5087     0.011594620
       7453.7786     0.015267690
       7455.0485     0.013657990
       7456.3184     0.013967600
       7457.5883     0.015818770
       7458.8581     0.014605540
       7460.1280     0.014320400
       7461.3978     0.015887250
       7462.6677     0.014352920
       7463.9375     0.014905000
       7465.2074     0.014873570
       7466.4772     0.015073100
       7467.7471     0.017634070
       7469.0169     0.019087820
       7470.2868     0.013298390
       7471.5566     0.010742970
       7472.8265     0.011117900
       7474.0964     0.013230610
       7475.3663     0.017964280
       7476.6362     0.019776690
       7477.9060     0.012388650
       7479.1759    0.0066953510
       7480.4457    0.0096185900
       7481.7156     0.010128910
       7482.9854     0.014561760
       7484.2553     0.019912310
       7485.5251     0.016023920
       7486.7950     0.012749090
       7488.0648     0.013806200
       7489.3347     0.015795930
       7490.6046     0.015385700
       7491.8745    0.0098170450
       7493.1443     0.010116960
       7494.4142     0.011937770
       7495.6840     0.010534790
       7496.9539    0.0098882860
       7498.2238    0.0065419390
       7499.4936    0.0041641140
       7500.7635    0.0068081740
       7502.0333    0.0098403350
       7503.3032    0.0093789120
       7504.5730    0.0081141020
       7505.8429     0.011932750
       7507.1128     0.013485130
       7508.3827    0.0074442290
       7509.6525     0.011110280
       7510.9224     0.012456530
       7512.1922    0.0084449460
       7513.4621    0.0044560930
       7514.7319    0.0048818520
       7516.0018     0.010197700
       7517.2716     0.011382780
       7518.5415     0.013741660
       7519.8114     0.010569380
       7521.0812    0.0051618270
       7522.3511    0.0023498250
       7523.6210    0.0036589280
       7524.8909     0.010789100
       7526.1607     0.017607450
       7527.4306     0.019132580
       7528.7004     0.014288630
       7529.9703     0.011351860
       7531.2401    0.0081541730
       7532.5100    0.0048740860
       7533.7798    0.0038808030
       7535.0497    0.0050442900
       7536.3195    0.0079529340
       7537.5894    0.0096628780
       7538.8592    0.0034158260
       7540.1292    0.0019989680
       7541.3991    0.0081320240
       7542.6689    0.0071430650
       7543.9388    0.0039269330
       7545.2086    0.0066630580
       7546.4785    0.0098992910
       7547.7483     0.010487030
       7549.0182    0.0088301520
       7550.2880    0.0088134130
       7551.5579     0.012074380
       7552.8277    0.0092701070
       7554.0976    0.0022133350
       7555.3674    0.0022806970
       7556.6373    0.0085844620
       7557.9072     0.012461580
       7559.1771     0.013692070
       7560.4469     0.014171980
       7561.7168     0.011197510
       7562.9867    0.0040226690
       7564.2565    0.0086623840
       7565.5264     0.010457250
       7566.7962    0.0063921410
       7568.0661    0.0050328290
       7569.3359    0.0090224200
       7570.6058    0.0091350900
       7571.8756    0.0054562370
       7573.1455    0.0066636850
       7574.4154    0.0093861530
       7575.6853    0.0095816440
       7576.9551    0.0074966260
       7578.2250    0.0074990640
       7579.4948    0.0070614080
       7580.7647    0.0016441750
       7582.0345    0.0035908650
       7583.3044    0.0065924340
       7584.5743    0.0038707800
       7585.8441    0.0057504260
       7587.1140    0.0078155780
       7588.3838    0.0060306820
       7589.6537    0.0084931860
       7590.9236     0.012452430
       7592.1935    0.0067654480
       7593.4633    0.0019830050
       7594.7332    0.0074524550
       7596.0030    0.0049108430
       7597.2729    0.0028789110
       7598.5427    0.0095522230
       7599.8126    0.0071499320
       7601.0824     0.013426760
       7602.3523     0.020996680
       7603.6221     0.017046350
       7604.8920    0.0054340610
       7606.1619   2.2944530e-05
       7607.4318   -0.0059413730
       7608.7017   -0.0030685400
       7609.9715     0.010638390
       7611.2414    0.0077523190
       7612.5112   -0.0029407880
       7613.7811    0.0033484740
       7615.0509     0.012278310
       7616.3208     0.010833330
       7617.5906    0.0095850660
       7618.8605     0.010648610
       7620.1303     0.015210660
       7621.4002     0.015000500
       7622.6700    0.0049590800
       7623.9399   -0.0016670310
       7625.2098  -0.00076792620
       7626.4797    0.0018571740
       7627.7496    0.0013621260
       7629.0194   -0.0032266150
       7630.2893    0.0050646520
       7631.5591     0.010779730
       7632.8290     0.013918970
       7634.0988     0.041319130
       7635.3687     0.054398730
       7636.6385     0.026149970
       7637.9084    0.0048956240
       7639.1782    0.0076300400
       7640.4481    0.0088300750
       7641.7180    0.0045157390
       7642.9879    0.0032676710
       7644.2577    0.0033491750
       7645.5276    0.0044675650
       7646.7974    0.0069480160
       7648.0673    0.0052437070
       7649.3372    0.0034087400
       7650.6070    0.0037851930
       7651.8769    0.0067438320
       7653.1467    0.0099691690
       7654.4166     0.011100460
       7655.6864     0.013297210
       7656.9563     0.013002610
       7658.2262     0.014671480
       7659.4961     0.013157100
       7660.7659    0.0077061690
       7662.0358    0.0072980820
       7663.3056    0.0081120800
       7664.5755    0.0083981040
       7665.8453    0.0082049820
       7667.1152    0.0082287760
       7668.3850    0.0073086780
       7669.6549     0.010979100
       7670.9248     0.012823300
       7672.1946    0.0057883460
       7673.4645    0.0025764180
       7674.7344    0.0051927670
       7676.0043    0.0080050710
       7677.2741    0.0087340280
       7678.5440    0.0071609270
       7679.8138    0.0059615530
       7681.0837    0.0086396400
       7682.3535     0.011010010
       7683.6234    0.0071196110
       7684.8932    0.0016511010
       7686.1631   0.00032849590
       7687.4329    0.0020790570
       7688.7028    0.0051298110
       7689.9726    0.0093371190
       7691.2425     0.014313590
       7692.5125     0.013944490
       7693.7823    0.0063610240
       7695.0522    0.0024573610
       7696.3220    0.0054630120
       7697.5919    0.0092036970
       7698.8617     0.012745010
       7700.1316     0.014086200
       7701.4014     0.014274750
       7702.6713     0.010224480
       7703.9411    0.0081050140
       7705.2110     0.015702190
       7706.4808     0.017376390
       7707.7507     0.012890650
       7709.0206    0.0066860600
       7710.2905   0.00056292050
       7711.5603    0.0023134260
       7712.8302    0.0086861810
       7714.1001     0.012387430
       7715.3699     0.012549760
       7716.6398     0.014978220
       7717.9096     0.021715250
       7719.1795     0.019823800
       7720.4493     0.018491920
       7721.7192     0.025433030
       7722.9890     0.024530350
       7724.2589     0.016701360
       7725.5288     0.015635880
       7726.7987     0.018334660
       7728.0685     0.021776110
       7729.3384     0.024446600
       7730.6082     0.018735550
       7731.8781     0.013048840
       7733.1479     0.010706690
       7734.4178     0.010022510
       7735.6877     0.013724890
       7736.9575     0.020080000
       7738.2274     0.024911740
       7739.4972     0.021169120
       7740.7671     0.017428360
       7742.0370     0.017613900
       7743.3069     0.015851460
       7744.5767     0.014163940
       7745.8466     0.013714800
       7747.1164     0.011531650
       7748.3863    0.0014545050
       7749.6561   -0.0035800780
       7750.9260     0.014924610
       7752.1958     0.034695290
       7753.4657     0.042178760
       7754.7356     0.041972500
       7756.0054     0.022078020
       7757.2753     0.012462710
       7758.5451     0.012242870
       7759.8151     0.010114530
       7761.0849     0.011469040
       7762.3548     0.023458220
       7763.6246     0.029095140
       7764.8945     0.022111270
       7766.1643     0.017690990
       7767.4342     0.016769220
       7768.7040     0.014149220
       7769.9739     0.010111600
       7771.2437    0.0046515340
       7772.5136    0.0068399890
       7773.7834     0.015507240
       7775.0533     0.016728610
       7776.3233     0.013772460
       7777.5931     0.013336410
       7778.8630     0.011646410
       7780.1328     0.011246990
       7781.4027     0.014736170
       7782.6725     0.018464920
       7783.9424     0.019171760
       7785.2122     0.017688810
       7786.4821     0.017216120
       7787.7519     0.017912110
       7789.0218     0.019374660
       7790.2916     0.015443170
       7791.5615     0.012362070
       7792.8314     0.010215200
       7794.1013    0.0075752180
       7795.3711     0.018544900
       7796.6410     0.036980520
       7797.9109     0.029617560
       7799.1807     0.011834690
       7800.4506     0.011197950
       7801.7204     0.013548540
       7802.9903     0.010025870
       7804.2601     0.010788910
       7805.5300     0.011223170
       7806.7998    0.0070206870
       7808.0697    0.0081907650
       7809.3396     0.017010450
       7810.6095     0.028886330
       7811.8793     0.029901360
       7813.1492     0.019291960
       7814.4190     0.015443440
       7815.6889     0.016375100
       7816.9587     0.014679440
       7818.2286    0.0096124500
       7819.4985   0.00048889550
       7820.7683   -0.0031378750
       7822.0382    0.0064324640
       7823.3080     0.022799110
       7824.5779     0.037922650
       7825.8478     0.036742890
       7827.1177     0.022257740
       7828.3875     0.017318930
       7829.6574     0.015043900
       7830.9272     0.012248500
       7832.1971    0.0079860780
       7833.4669    0.0076370200
       7834.7368     0.012190960
       7836.0066     0.016295900
       7837.2765     0.017853080
       7838.5463     0.013524790
       7839.8162    0.0038763010
       7841.0861   0.00020584440
       7842.3559    0.0047027730
       7843.6259     0.012219810
       7844.8957     0.021535200
       7846.1656     0.020585300
       7847.4354     0.014166220
       7848.7053    0.0094202190
       7849.9751    0.0041831490
       7851.2450   -0.0061505130
       7852.5148   0.00039424420
       7853.7847     0.012748020
       7855.0545     0.024098510
       7856.3244     0.046051790
       7857.5942     0.034572930
       7858.8641    0.0038449620
       7860.1340    0.0045470330
       7861.4039     0.017302510
       7862.6738     0.025781820
       7863.9436     0.022672570
       7865.2135    0.0054779760
       7866.4833    0.0022740520
       7867.7532    0.0079234060
       7869.0230    0.0026292100
       7870.2929    0.0045598220
       7871.5627    0.0097204890
       7872.8326     0.011995800
       7874.1024     0.024587510
       7875.3723     0.019524430
       7876.6422     0.011696450
       7877.9121    0.0085753970
       7879.1819    0.0076717950
       7880.4518    0.0084180740
       7881.7216    0.0069238440
       7882.9915    0.0098464070
       7884.2614     0.017084410
       7885.5312     0.017960830
       7886.8011    0.0086376670
       7888.0709   0.00072353900
       7889.3408     0.010216330
       7890.6106     0.010647670
       7891.8805     0.014202610
       7893.1504     0.020731100
       7894.4203     0.013640250
       7895.6901    0.0095232740
       7896.9600    0.0088295840
       7898.2298    0.0049783980
       7899.4997    0.0045645970
       7900.7695    0.0095558970
       7902.0394     0.011975480
       7903.3092     0.011472230
       7904.5791    0.0094404530
       7905.8490    0.0092355730
       7907.1188     0.010123620
       7908.3887     0.010028650
       7909.6585    0.0099336720
       7910.9285    0.0098387330
       7912.1983    0.0097437570
       7913.4682    0.0096487810
       7914.7380    0.0095538410
       7916.0079    0.0094588660
       7917.2777    0.0093638900
       7918.5476    0.0092689510
       7919.8174    0.0091739750
       7921.0873    0.0090789990
       7922.3571     0.017109200
       7923.6270     0.031540540
       7924.8968     0.027201820
       7926.1667     0.018552590
       7927.4367     0.017877750
       7928.7065     0.014915070
       7929.9764    0.0037338330
       7931.2462    0.0079003330
       7932.5161     0.015892510
       7933.7859     0.024065850
       7935.0558     0.022174470
       7936.3256     0.019962960
       7937.5955     0.012333930
       7938.8653    0.0099104200
       7940.1352    0.0099932210
       7941.4050     0.012046010
       7942.6749     0.012049350
       7943.9448     0.011349670
       7945.2147     0.010484550
       7946.4845    0.0055120200
       7947.7544    0.0049228420
       7949.0243    0.0053345120
       7950.2941    0.0022509450
       7951.5640    0.0077067530
       7952.8338     0.020305500
       7954.1037     0.021528490
       7955.3735     0.012576860
       7956.6434     0.012288530
       7957.9132     0.015079440
       7959.1831     0.013619350
       7960.4530    0.0095787270
       7961.7229    0.0088689750
       7962.9927    0.0081589500
       7964.2626    0.0074489250
       7965.5324    0.0067391730
       7966.8023    0.0060291480
       7968.0721    0.0053191230
       7969.3420    0.0046093710
       7970.6119    0.0038993460
       7971.8817    0.0013328170
       7973.1516    0.0096805380
       7974.4214     0.011209750
       7975.6913    0.0093549810
       7976.9611    0.0079928940
       7978.2311    0.0051588290
       7979.5009    0.0079727250
       7980.7708     0.014094060
       7982.0406     0.024175050
       7983.3105     0.019967190
       7984.5803     0.015854400
       7985.8502     0.014789620
       7987.1200    0.0064652490
       7988.3899    0.0045862180
       7989.6597    0.0051633300
       7990.9296    0.0051774510
       7992.1995    0.0051915720
       7993.4693    0.0052056870
       7994.7393    0.0052198080
       7996.0091    0.0052339290
       7997.2790    0.0052480440
       7998.5488    0.0052621650
       7999.8187    0.0052762860
       8001.0885    0.0052904010
       8002.3584    0.0050932580
       8003.6282     0.012382010
       8004.8981    0.0084406530
       8006.1679    0.0078733860
       8007.4378    0.0076933020
       8008.7076    0.0072040410
       8009.9775    0.0036255340
       8011.2474    0.0024837520
       8012.5173    0.0010529310
       8013.7872    0.0030246950
       8015.0570    0.0090128420
       8016.3269     0.011204410
       8017.5967    0.0087332570
       8018.8666    0.0085940670
       8020.1364    0.0084549290
       8021.4063    0.0083157390
       8022.6761    0.0081765480
       8023.9460    0.0080374120
       8025.2158    0.0078982210
       8026.4857    0.0077590300
       8027.7556    0.0076198940
       8029.0255    0.0074807030
       8030.2953    0.0073415120
       8031.5652    0.0072023760
       8032.8350    0.0091132980
       8034.1049    0.0083115010
       8035.3748    0.0064807920
       8036.6446    0.0089309500
       8037.9145     0.014629230
       8039.1843     0.014768290
       8040.4542    0.0081960950
       8041.7240     0.010156350
       8042.9939     0.011800300
       8044.2637    0.0049458770
       8045.5337    0.0042296620
       8046.8035    0.0054677600
       8048.0734    0.0067266920
       8049.3432    0.0081251550
       8050.6131    0.0024494090
       8051.8829    0.0042195940
       8053.1528    0.0095557330
       8054.4226    0.0040426390
       8055.6925     0.011615110
       8056.9624     0.012879600
       8058.2322     0.010000500
       8059.5021   -0.0011183550
       8060.7719   -0.0017347380
       8062.0419    0.0051194580
       8063.3117    0.0073436610
       8064.5816     0.014007970
       8065.8514     0.015106380
       8067.1213    0.0099364850
       8068.3911     0.011028800
       8069.6610     0.013306410
       8070.9308    0.0098151170
       8072.2007    0.0066715290
       8073.4705    0.0067087990
       8074.7404    0.0069754610
       8076.0102    0.0067157320
       8077.2801    0.0061263840
       8078.5501    0.0088263210
       8079.8199    0.0074204500
       8081.0898    0.0080660300
       8082.3596     0.018414360
       8083.6295     0.010226430
       8084.8993    0.0056859170
       8086.1692    0.0085272390
       8087.4390    0.0077781780
       8088.7089    0.0086939750
       8089.9787    0.0094840910
       8091.2486    0.0059925670
       8092.5184     0.010363060
       8093.7883     0.017545110
       8095.0582     0.014450020
       8096.3281     0.015055970
       8097.5979     0.013346230
       8098.8678    0.0085987580
       8100.1377    0.0026960790
       8101.4075  -0.00015434510
       8102.6774    0.0042050950
       8103.9472     0.012545640
       8105.2171     0.019866370
       8106.4869     0.018117870
       8107.7568     0.013305450
       8109.0266     0.014131400
       8110.2965     0.012129920
       8111.5664     0.013158220
       8112.8363     0.012625280
       8114.1061     0.010620740
       8115.3760    0.0098503510
       8116.6458     0.010544820
       8117.9157     0.011147250
       8119.1855     0.011742670
       8120.4554     0.017458140
       8121.7253     0.014901470
       8122.9951    0.0087858720
       8124.2650    0.0073117360
       8125.5348    0.0084768110
       8126.8047    0.0094146710
       8128.0745    0.0097473730
       8129.3445    0.0049877900
       8130.6143    0.0028272460
       8131.8842    0.0063969180
       8133.1540     0.010590510
       8134.4239    0.0084441620
       8135.6937    0.0064579730
       8136.9636    0.0087820300
       8138.2334    0.0047167630
       8139.5033    0.0079137370
       8140.7731     0.011071920
       8142.0430     0.010030760
       8143.3129     0.013170420
       8144.5827     0.012045480
       8145.8527    0.0058142210
       8147.1225    0.0064986230
       8148.3924     0.012769890
       8149.6622     0.013763040
       8150.9321     0.011617070
       8152.2019    0.0082305020
       8153.4718    0.0075446810
       8154.7416    0.0046693040
       8156.0115    0.0010191160
       8157.2813    0.0051107890
       8158.5512    0.0088758730
       8159.8210    0.0053330840
       8161.0909    0.0065431060
       8162.3609    0.0097135990
       8163.6307    0.0043748530
       8164.9006    0.0094811230
       8166.1704     0.011284950
       8167.4403    0.0038549290
       8168.7101    0.0047395610
       8169.9800    0.0070078620
       8171.2498     0.010076560
       8172.5197     0.011075750
       8173.7895    0.0099630850
       8175.0594     0.016010850
       8176.3292     0.014006300
       8177.5991     0.011561760
       8178.8690     0.010460300
       8180.1389    0.0040275720
       8181.4087    0.0040089030
       8182.6786    0.0096148350
       8183.9485    0.0076771580
       8185.2183    0.0049941780
       8186.4882    0.0081628760
       8187.7580    0.0087928160
       8189.0279    0.0096633780
       8190.2977     0.010583170
       8191.5676     0.013055820
       8192.8374     0.013381070
       8194.1073     0.010949510
       8195.3771    0.0062484920
       8196.6471    0.0036965380
       8197.9169    0.0041947910
       8199.1868    0.0024612980
       8200.4566    0.0048694350
       8201.7265     0.010191340
       8202.9963     0.013816320
       8204.2662     0.013570300
       8205.5361    0.0075752070
       8206.8059    0.0074705160
       8208.0758    0.0072373810
       8209.3456    0.0054043970
       8210.6155    0.0067293010
       8211.8853    0.0089325420
       8213.1553     0.012212490
       8214.4251     0.014463240
       8215.6950     0.014382600
       8216.9648     0.012792930
       8218.2347     0.012479220
       8219.5045    0.0083844000
       8220.7744    0.0061856200
       8222.0442    0.0025882180
       8223.3141    0.0050521910
       8224.5839     0.014977850
       8225.8538     0.017253070
       8227.1237     0.010424210
       8228.3935     0.010747080
       8229.6635     0.014070860
       8230.9333     0.013966290
       8232.2032     0.016454040
       8233.4730     0.017067420
       8234.7429     0.015703130
       8236.0127     0.012314830
       8237.2826     0.011612460
       8238.5524     0.015019400
       8239.8223     0.015190030
       8241.0921     0.014303850
       8242.3620     0.011259720
       8243.6318    0.0064341460
       8244.9017    0.0063525840
       8246.1716     0.014157840
       8247.4415     0.017955720
       8248.7114     0.011922000
       8249.9812     0.012205170
       8251.2511     0.020685900
       8252.5209     0.019979800
       8253.7908     0.012161920
       8255.0606     0.014586040
       8256.3305     0.013850720
       8257.6003    0.0082279570
       8258.8702     0.011830910
       8260.1400     0.012904660
       8261.4099     0.012553870
       8262.6797     0.013977990
       8263.9497     0.012900590
       8265.2195    0.0056982640
       8266.4894   0.00066020670
       8267.7592    0.0049622060
       8269.0291     0.012107540
       8270.2990     0.014103800
       8271.5688     0.013275460
       8272.8387     0.011539050
       8274.1085     0.011972220
       8275.3784     0.013493490
       8276.6482    0.0082244450
       8277.9181    0.0034595150
       8279.1879    0.0092856460
       8280.4579     0.013970640
       8281.7277    0.0086200160
       8282.9976    0.0080383490
       8284.2674     0.016895100
       8285.5373     0.015240560
       8286.8071   0.00019529600
       8288.0770   -0.0014044780
       8289.3468     0.018177160
       8290.6167     0.025305240
       8291.8866     0.024138680
       8293.1564     0.020017120
       8294.4263     0.012486720
       8295.6961    0.0041354660
       8296.9661   -0.0025927510
       8298.2359    0.0073556040
       8299.5058    0.0099483640
       8300.7756     0.014837530
       8302.0455     0.033764150
       8303.3153     0.032748730
       8304.5852     0.020815060
       8305.8550     0.011269180
       8307.1249    0.0064353290
       8308.3947    0.0045285360
       8309.6646   -0.0016574870
       8310.9344   -0.0022420260
       8312.2043    0.0098108230
       8313.4743     0.020547230
       8314.7441     0.020516070
       8316.0140     0.014145910
       8317.2838    0.0096556440
       8318.5537    0.0084209560
       8319.8235    0.0091477050
       8321.0934     0.011711220
       8322.3632     0.010377640
       8323.6331    0.0054746180
       8324.9029    0.0026534860
       8326.1728    0.0049682590
       8327.4426    0.0087029730
       8328.7125     0.012027900
       8329.9823     0.012463150
       8331.2523     0.012737300
       8332.5221     0.012160670
       8333.7920    0.0056703620
       8335.0619    0.0053236430
       8336.3317    0.0088917450
       8337.6016     0.011974530
       8338.8714     0.011737130
       8340.1413     0.013065600
       8341.4111     0.012782850
       8342.6810     0.012500110
       8343.9508     0.012217150
       8345.2207     0.011934410
       8346.4905     0.011651660
       8347.7605     0.011368700
       8349.0303     0.011085960
       8350.3002     0.010803220
       8351.5700     0.010520260
       8352.8399     0.010237510
       8354.1097    0.0099547690
       8355.3796    0.0096718090
       8356.6495    0.0093890650
       8357.9193    0.0091063220
       8359.1892    0.0088233610
       8360.4590    0.0080487230
       8361.7289    0.0046366490
       8362.9987   0.00034340770
       8364.2687    0.0029144660
       8365.5385    0.0091483810
       8366.8084     0.016288770
       8368.0782     0.018880840
       8369.3481     0.013809220
       8370.6179     0.011536300
       8371.8878    0.0094980170
       8373.1576     0.011039020
       8374.4275     0.015175590
       8375.6973     0.011618020
       8376.9672     0.010560790
       8378.2371     0.011286680
       8379.5069    0.0060809170
       8380.7769    0.0032710600
       8382.0467     0.012936260
       8383.3166     0.018661970
       8384.5864     0.018844110
       8385.8563     0.021225610
       8387.1261     0.014864410
       8388.3960    0.0065682590
       8389.6658     0.012384310
       8390.9357     0.018218380
       8392.2055     0.010413590
       8393.4754    0.0091552820
       8394.7452     0.012769870
       8396.0151     0.011720160
       8397.2849     0.010671260
       8398.5549    0.0096223670
       8399.8248    0.0085726610
       8401.0946    0.0075237630
       8402.3645    0.0064748650
       8403.6343    0.0054251600
       8404.9042    0.0043762620
       8406.1740    0.0033273640
       8407.4439    0.0039519000
       8408.7137    0.0075278700
       8409.9836    0.0071639700
       8411.2534    0.0083990650
       8412.5233    0.0073878030
       8413.7931    0.0010955780
       8415.0631     0.010648040
       8416.3329     0.023978920
       8417.6028     0.025431710
       8418.8726     0.022779820
       8420.1425     0.012230830
       8421.4124    0.0026136390
       8422.6822     0.010837350
       8423.9521     0.020556560
       8425.2219     0.015860290
       8426.4918     0.015125350
       8427.7616     0.014390980
       8429.0315     0.013656610
       8430.3013     0.012921670
       8431.5713     0.012187300
       8432.8411     0.011452920
       8434.1110     0.010717990
       8435.3808    0.0099836120
       8436.6507    0.0092492400
       8437.9205    0.0063878090
       8439.1904    0.0075090760
       8440.4602    0.0072635930
       8441.7301    0.0038274770
       8443.0000    0.0068241630
       8444.2698    0.0097574520
       8445.5397     0.010575650
       8446.8095     0.010291950
       8448.0795     0.010008240
       8449.3493    0.0097243190
       8450.6192    0.0094406140
       8451.8890    0.0091569090
       8453.1589    0.0088729860
       8454.4287    0.0085892810
       8455.6986    0.0083055760
       8456.9684    0.0080216530
       8458.2383    0.0077379480
       8459.5081    0.0058188370
       8460.7780    0.0065935420
       8462.0478    0.0073676510
       8463.3177    0.0081417600
       8464.5877    0.0089164650
       8465.8575    0.0096905730
       8467.1274     0.010464680
       8468.3972     0.011239390
       8469.6671     0.012013500
       8470.9369     0.012787610
       8472.2068     0.013562310
       8473.4766     0.010917010
       8474.7465    0.0069174510
       8476.0163    0.0072001570
       8477.2862     0.011614130
       8478.5560    0.0093109060
       8479.8259    0.0060540120
       8481.0957     0.011160450
       8482.3657     0.011660540
       8483.6355    0.0046940210
       8484.9054    0.0059839250
       8486.1753     0.010457560
       8487.4451    0.0083271400
       8488.7150    0.0092771710
       8489.9848     0.010424740
       8491.2547    0.0074806370
       8492.5245    0.0040011500
       8493.7944  -0.00025361020
       8495.0642   0.00057342850
       8496.3341     0.010737830
       8497.6039     0.012359770
       8498.8739    0.0090832210
       8500.1437    0.0075863380
       8501.4136    0.0029855080
       8502.6834  -0.00072968560
       8503.9533    0.0038223360
       8505.2231     0.020582240
       8506.4930     0.036504290
       8507.7629     0.039012540
       8509.0327     0.027634420
       8510.3026     0.014975270
       8511.5724     0.010194920
       8512.8423    0.0066806680
       8514.1121    0.0067287130
       8515.3821    0.0077244870
       8516.6519     0.013583980
       8517.9218     0.017721080
       8519.1916    0.0070873550
       8520.4615    0.0048472300
       8521.7313    0.0099094710
       8523.0012    0.0082825700
       8524.2710     0.011697790
       8525.5409     0.011551800
       8526.8107     0.011974610
       8528.0806     0.015545530
       8529.3505     0.011647090
       8530.6203    0.0070921010
       8531.8903    0.0058837850
       8533.1601     0.010415710
       8534.4300     0.014974820
       8535.6998     0.011515490
       8536.9697     0.011885710
       8538.2395    0.0092141260
       8539.5094    0.0095483050
       8540.7792     0.012311250
       8542.0491     0.020111560
       8543.3189     0.019337450
       8544.5888     0.012750060
       8545.8586    0.0086065470
       8547.1285     0.012688660
       8548.3983    0.0082993680
       8549.6683    0.0048140560
       8550.9382     0.012979840
       8552.2080     0.017534170
       8553.4779     0.013208270
       8554.7477     0.016086550
       8556.0176     0.020001360
       8557.2874     0.014394680
       8558.5573     0.011710150
       8559.8271     0.010880900
       8561.0970    0.0066058660
       8562.3668    0.0073760270
       8563.6367     0.014882420
       8564.9065     0.019862780
       8566.1765     0.015316580
       8567.4463    0.0099393450
       8568.7162     0.010389030
       8569.9860     0.014529710
       8571.2559     0.013628030
       8572.5258     0.010592600
       8573.7956     0.011610290
       8575.0655     0.016307600
       8576.3353     0.014004780
       8577.6052     0.013035390
       8578.8750     0.013720780
       8580.1449     0.016611270
       8581.4147     0.018917580
       8582.6847     0.018315270
       8583.9545     0.018563080
       8585.2244     0.018512500
       8586.4942     0.016434640
       8587.7641    0.0084978030
       8589.0339    0.0099442460
       8590.3038     0.013979970
       8591.5737    0.0092323030
       8592.8435    0.0094788480
       8594.1134     0.015201960
       8595.3832     0.014566180
       8596.6531     0.012967440
       8597.9229     0.017064470
       8599.1929     0.014400220
       8600.4627     0.010343590
       8601.7326     0.014608230
       8603.0024     0.016666380
       8604.2723     0.021882390
       8605.5421     0.017294340
       8606.8120    0.0081910840
       8608.0818    0.0084509630
       8609.3517     0.014568340
       8610.6215     0.017462980
       8611.8914     0.018202630
       8613.1613     0.012963100
       8614.4311     0.012443580
       8615.7010    0.0063556250
       8616.9709     0.011258480
       8618.2408     0.014090490
       8619.5106     0.026088020
       8620.7805     0.013321080
       8622.0503    0.0070608720
       8623.3202     0.011982170
       8624.5900     0.013170210
       8625.8599     0.011124270
       8627.1297     0.020597070
       8628.3996     0.015709150
       8629.6694    0.0067983470
       8630.9393     0.010494640
       8632.2091     0.017308420
       8633.4791     0.016142550
       8634.7490     0.017756010
       8636.0188     0.023277960
       8637.2887     0.025318590
       8638.5585     0.023403070
       8639.8284     0.015624230
       8641.0982     0.020563670
       8642.3681     0.017462010
       8643.6379     0.015734280
       8644.9078     0.021445350
       8646.1776     0.022641840
       8647.4475     0.020004160
       8648.7173     0.017644590
       8649.9873     0.015353300
       8651.2571     0.023950780
       8652.5270     0.027932880
       8653.7968     0.010137620
       8655.0667     0.010076690
       8656.3366     0.021081890
       8657.6064     0.019519130
       8658.8763    0.0050863060
       8660.1461    0.0086322430
       8661.4160     0.023281310
       8662.6858     0.033688690
       8663.9557     0.034119990
       8665.2255     0.020345470
       8666.4955     0.019473240
       8667.7653     0.022121390
       8669.0352     0.016586610
       8670.3050     0.024084780
       8671.5749     0.029352140
       8672.8447     0.018966200
       8674.1146     0.012258640
       8675.3844     0.022943650
       8676.6543     0.023917940
       8677.9242     0.016652110
       8679.1940     0.028192270
       8680.4639     0.019599420
       8681.7337     0.018169780
       8683.0037     0.026004300
       8684.2735     0.025728630
       8685.5434     0.022534530
       8686.8132     0.024134830
       8688.0831     0.025600070
       8689.3529     0.032858090
       8690.6228     0.031012500
       8691.8926     0.024858030
       8693.1625     0.025270860
       8694.4323     0.023694600
       8695.7022     0.022379950
       8696.9720     0.024064690
       8698.2419     0.024531330
       8699.5118     0.031129000
       8700.7817     0.027088510
       8702.0516     0.028197080
       8703.3214     0.033595810
       8704.5913     0.034424680
       8705.8611     0.029871530
       8707.1310     0.021931970
       8708.4008     0.024027950
       8709.6707     0.025708380
       8710.9405     0.027076350
       8712.2104     0.028594620
       8713.4802     0.019095930
       8714.7501     0.019915470
       8716.0199     0.026719210
       8717.2899     0.020667520
       8718.5597     0.015847450
       8719.8296     0.019008220
       8721.0995     0.023991820
       8722.3693     0.022178820
       8723.6392     0.023065580
       8724.9090     0.027101620
       8726.1789     0.027991940
       8727.4487     0.024279380
       8728.7186     0.025670800
       8729.9884     0.021400180
       8731.2583     0.018579520
       8732.5281     0.018140090
       8733.7981     0.023878150
       8735.0679     0.022677510
       8736.3378     0.021729980
       8737.6076     0.022806390
       8738.8775     0.019646210
       8740.1473     0.020671360
       8741.4172     0.022620160
       8742.6871     0.019616380
       8743.9569     0.018757190
       8745.2268     0.014357810
       8746.4966     0.015148190
       8747.7665     0.016294960
       8749.0363     0.011876750
       8750.3063     0.019407260
       8751.5761     0.027261120
       8752.8460     0.023432420
       8754.1158     0.023988350
       8755.3857     0.021313270
       8756.6555    0.0096942710
       8757.9254    0.0091808070
       8759.1952    0.0086420440
       8760.4651    0.0088992850
       8761.7349     0.020536240
       8763.0048     0.025888670
       8764.2747     0.027407070
       8765.5445     0.024295720
       8766.8144     0.012765330
       8768.0843     0.023548120
       8769.3542     0.023282800
       8770.6240     0.023017680
       8771.8939     0.022752560
       8773.1637     0.022487240
       8774.4336     0.022222120
       8775.7034     0.021957000
       8776.9733     0.021691680
       8778.2431     0.021426560
       8779.5130     0.021161440
       8780.7828     0.020896120
       8782.0527     0.020631000
       8783.3225     0.020365880
       8784.5925     0.020100560
       8785.8624     0.019835440
       8787.1322     0.019570320
       8788.4021     0.019305000
       8789.6719     0.019039880
       8790.9418     0.018774770
       8792.2116     0.018509440
       8793.4815     0.018244320
       8794.7513     0.017979210
       8796.0212     0.022911560
       8797.2910     0.026815720
       8798.5609     0.023125410
       8799.8307     0.016477570
       8801.1007     0.015062560
       8802.3705     0.015899470
       8803.6404     0.018760550
       8804.9102     0.023527480
       8806.1801     0.023058080
       8807.4500     0.025250450
       8808.7198     0.020315280
       8809.9897     0.015737380
       8811.2595     0.012864960
       8812.5294     0.019882300
       8813.7992     0.019378010
       8815.0691     0.011432070
       8816.3389    0.0090864650
       8817.6089     0.013743260
       8818.8787    0.0055249700
       8820.1486    0.0049284590
       8821.4184     0.014798520
       8822.6883     0.015059780
       8823.9581     0.015320830
       8825.2280     0.015581890
       8826.4978     0.015843150
       8827.7677     0.016104200
       8829.0376     0.016365260
       8830.3074     0.016626520
       8831.5773     0.016887580
       8832.8471     0.017148630
       8834.1170     0.017409890
       8835.3869     0.017670950
       8836.6568     0.017932010
       8837.9266     0.018193260
       8839.1965     0.018454320
       8840.4663     0.018715580
       8841.7362     0.018976640
       8843.0060     0.019237690
       8844.2759     0.017109310
       8845.5457     0.018339250
       8846.8156     0.019273580
       8848.0854     0.023988200
       8849.3553     0.021337450
       8850.6252     0.017317130
       8851.8951     0.018116070
       8853.1650     0.026422560
       8854.4348     0.024028030
       8855.7047     0.019550000
       8856.9745     0.022655030
       8858.2444     0.020337160
       8859.5142     0.012127370
       8860.7841    0.0082915590
       8862.0539    0.0078594980
       8863.3238    0.0081799440
       8864.5936    0.0065087970
       8865.8635    0.0069460770
       8867.1333    0.0073836930
       8868.4033    0.0078209730
       8869.6731    0.0082582530
       8870.9430    0.0086958700
       8872.2129    0.0091331500
       8873.4827    0.0095704300
       8874.7526     0.010008050
       8876.0224     0.010445330
       8877.2923     0.010882610
       8878.5621     0.012167670
       8879.8320     0.012967400
       8881.1018     0.012200100
       8882.3717     0.011432220
       8883.6415     0.010664920
       8884.9115    0.0098976280
       8886.1813    0.0091297430
       8887.4512    0.0083624490
       8888.7210    0.0075951540
       8889.9909    0.0068272690
       8891.2607    0.0060599750
       8892.5306    0.0052926800
       8893.8005    0.0022586010
       8895.0703    0.0026712070
       8896.3402    0.0029233050
       8897.6100    0.0062605380
       8898.8799    0.0085370760
       8900.1497    0.0055661110
       8901.4196    0.0020978350
       8902.6895    0.0075360950
       8903.9594    0.0044759570
       8905.2292    -0.010048190
       8906.4991    0.0053624910
       8907.7689     0.024044210
       8909.0388     0.013209440
       8910.3086    0.0035488380
       8911.5785    0.0036874610
       8912.8483    0.0038261910
       8914.1182    0.0039648140
       8915.3881    0.0041034370
       8916.6579    0.0042421660
       8917.9278    0.0043807900
       8919.1977    0.0045194130
       8920.4676    0.0046581420
       8921.7374    0.0047967650
       8923.0073    0.0049353880
       8924.2771    0.0050741180
       8925.5470    0.0052127410
       8926.8168    0.0067690820
       8928.0867    0.0093170530
       8929.3565    0.0079209000
       8930.6264    0.0091823130
       8931.8962     0.012375700
       8933.1661     0.013253470
       8934.4359    0.0090981830
       8935.7059    0.0079618520
       8936.9758     0.011912700
       8938.2456     0.012072440
       8939.5155    0.0099887620
       8940.7853    0.0054664990
       8942.0552   -0.0097309980
       8943.3250    -0.020197440
       8944.5949   -0.0023980350
       8945.8647     0.019101220
       8947.1346     0.017973210
       8948.4044     0.017674350
       8949.6743     0.011651860
       8950.9441    0.0080135870
       8952.2141     0.012245320
       8953.4839     0.011570600
       8954.7538     0.010896400
       8956.0236     0.010222190
       8957.2935    0.0095474760
       8958.5634    0.0088732750
       8959.8332    0.0081990750
       8961.1031    0.0075243560
       8962.3729    0.0068501560
       8963.6428    0.0061759550
       8964.9126    0.0055012360
       8966.1825    0.0048270360
       8967.4523    0.0041528350
       8968.7223     0.012226900
       8969.9921     0.014227000
       8971.2620     0.013808130
       8972.5318    0.0099894150
       8973.8017    0.0065966510
       8975.0715    0.0018583930
       8976.3414   -0.0036952000
       8977.6112   0.00012446670
       8978.8811    0.0050292660
       8980.1510    0.0083581810
       8981.4208     0.011668400
       8982.6907    0.0079998650
       8983.9605    0.0056193490
       8985.2304    0.0058134650
       8986.5003    0.0049748680
       8987.7702  -0.00034025650
       8989.0400   -0.0054399300
       8990.3099    0.0066179840
       8991.5797     0.013753950
       8992.8496     0.017477710
       8994.1194    0.0084134310
       8995.3893    0.0023870380
       8996.6591    0.0017050520
       8997.9290    0.0053744130
       8999.1989    0.0095373170
       9000.4687    0.0089815840
       9001.7386    0.0084258510
       9003.0085    0.0078696920
       9004.2784    0.0073139590
       9005.5482    0.0067582270
       9006.8181    0.0062020670
       9008.0879    0.0056463340
       9009.3578    0.0050906020
       9010.6276    0.0045344420
       9011.8975    0.0039787100
       9013.1673    0.0034229770
       9014.4372    0.0028668170
       9015.7070    0.0023110850
       9016.9769    0.0017553520
       9018.2467   -0.0020668990
       9019.5167   1.2736940e-05
       9020.7866    0.0044199200
       9022.0564    0.0080546680
       9023.3263     0.010772530
       9024.5961     0.018427430
       9025.8660     0.016512870
       9027.1358    0.0062695900
       9028.4057    0.0065813030
       9029.6755     0.010925070
       9030.9454    0.0061931110
       9032.2152    0.0077768550
       9033.4851    0.0084405770
       9034.7549    0.0055101500
       9036.0249    0.0070129760
       9037.2947     0.015232440
       9038.5646     0.025692520
       9039.8344     0.028549190
       9041.1043     0.021956210
       9042.3742     0.015362820
       9043.6440    0.0097216910
       9044.9139    0.0068886310
       9046.1837    0.0074838630
       9047.4536    0.0022339970
       9048.7234    0.0038407230
       9049.9933     0.013832040
       9051.2631     0.013323550
       9052.5330     0.010035850
       9053.8029     0.010536450
       9055.0728    0.0073491070
       9056.3426    0.0098641480
       9057.6125     0.017741790
       9058.8823     0.019136160
       9060.1522     0.016241700
       9061.4220     0.011551460
       9062.6919     0.011930220
       9063.9618    0.0091908190
       9065.2316    0.0032003770
       9066.5015    0.0075467380
       9067.7713     0.018297930
       9069.0412     0.017525080
       9070.3111     0.010460860
       9071.5810    0.0062597800
       9072.8508    0.0050803660
       9074.1207    0.0085147330
       9075.3905     0.012551430
       9076.6604     0.014571610
       9077.9302     0.012783050
       9079.2001     0.013517200
       9080.4699     0.016845430
       9081.7398     0.011841830
       9083.0096    0.0031422650
       9084.2795    0.0033089940
       9085.5494    0.0074073800
       9086.8193    0.0086494310
       9088.0892    0.0044249220
       9089.3590  -0.00065267780
       9090.6289   -0.0034518190
       9091.8987   -0.0083660760
       9093.1686   -0.0018932000
       9094.4384    0.0092749800
       9095.7083    0.0049339560
       9096.9781    0.0015785510
       9098.2480    0.0065100610
       9099.5178    0.0092648550
       9100.7877     0.011869980
       9102.0575     0.020767450
       9103.3275     0.028238850
       9104.5973     0.023137090
       9105.8672     0.022260270
       9107.1371     0.020854690
       9108.4069    0.0099976580
       9109.6768     0.015822780
       9110.9466     0.038845780
       9112.2165     0.048473830
       9113.4863     0.038365480
       9114.7562     0.011232960
       9116.0260   -0.0044639010
       9117.2959     0.010179650
       9118.5657     0.017974140
       9119.8356     0.011795500
       9121.1055    0.0036499120
       9122.3754    0.0073007840
       9123.6452     0.013410720
       9124.9151    0.0089310570
       9126.1849    0.0043064820
       9127.4548    0.0046275550
       9128.7247   -0.0016789130
       9129.9945  -0.00038182110
       9131.2644    0.0075677900
       9132.5342    0.0094425660
       9133.8041    0.0091257270
       9135.0739    0.0086376800
       9136.3438     0.013561100
       9137.6137     0.015890430
       9138.8836     0.014746190
       9140.1534     0.018615440
       9141.4233     0.016154530
       9142.6931     0.010880590
       9143.9630     0.014880390
       9145.2328     0.015474290
       9146.5027    0.0049428670
       9147.7725    0.0015563800
       9149.0424    0.0098552900
       9150.3123     0.014133340
       9151.5821    0.0099406640
       9152.8520     0.011077850
       9154.1219     0.011288480
       9155.3918     0.011233910
       9156.6616    0.0083207570
       9157.9315    0.0020545630
       9159.2013    0.0093003450
       9160.4712     0.016592820
       9161.7410     0.010171100
       9163.0109     0.011355650
       9164.2807     0.017452950
       9165.5506     0.014854780
       9166.8204    0.0047510350
       9168.0903   -0.0026742170
       9169.3601    0.0026296690
       9170.6301    0.0090713920
       9171.9000    0.0072792120
       9173.1698     0.010740740
       9174.4397     0.015069360
       9175.7095    0.0082439330
       9176.9794    0.0047954500
       9178.2492     0.011777340
       9179.5191     0.014547470
       9180.7889    0.0096855250
       9182.0588    0.0086592380
       9183.3286     0.010089130
       9184.5985     0.015949790
       9185.8683     0.018933700
       9187.1382     0.010345240
       9188.4081     0.013908760
       9189.6780     0.017868270
       9190.9478     0.012202840
       9192.2177    0.0082084130
       9193.4876    0.0043336870
       9194.7574    0.0081365900
       9196.0273     0.014112180
       9197.2971    0.0099576990
       9198.5670    0.0093251020
       9199.8368     0.016338150
       9201.1067    0.0091223480
       9202.3765   -0.0025635760
       9203.6464    0.0030260210
       9204.9163    0.0085112420
       9206.1862    0.0046681570
       9207.4560    0.0027705030
       9208.7259    0.0081040790
       9209.9957     0.010144990
       9211.2656    0.0019072010
       9212.5354    0.0028901320
       9213.8053    0.0097374920
       9215.0752    0.0097022240
       9216.3450     0.010968860
       9217.6149     0.011035610
       9218.8847     0.011161890
       9220.1546     0.013024240
       9221.4245     0.018519760
       9222.6944     0.020794000
       9223.9642     0.015115980
       9225.2341    0.0040187920
       9226.5039   0.00056861500
       9227.7738     0.011907780
       9229.0436     0.013901030
       9230.3135     0.018188860
       9231.5833     0.018002030
       9232.8532     0.015934260
       9234.1230    0.0089672790
       9235.3929     0.010844360
       9236.6628     0.018605770
       9237.9327     0.019197290
       9239.2026     0.010827690
       9240.4724    0.0068575090
       9241.7423     0.013757880
       9243.0121     0.013932050
       9244.2820    0.0071041990
       9245.5518    0.0091407470
       9246.8217     0.012419730
       9248.0915    0.0041346550
       9249.3614    0.0035734460
       9250.6312     0.014552710
       9251.9011     0.014250520
       9253.1709     0.015914650
       9254.4408     0.013555290
       9255.7107    0.0048431240
       9256.9806   0.00048034380
       9258.2505    0.0068160090
       9259.5203    0.0091219100
       9260.7902    0.0055836730
       9262.0600    0.0087301820
       9263.3299     0.010244040
       9264.5997     0.019783890
       9265.8696     0.021224490
       9267.1394    0.0055803410
       9268.4093  -0.00075974000
       9269.6791    0.0015674520
       9270.9490     0.017909250
       9272.2189     0.021226510
       9273.4888     0.013474650
       9274.7586     0.014078510
       9276.0285     0.013225880
       9277.2983     0.015967870
       9278.5682     0.012461000
       9279.8381     0.011428180
       9281.1079     0.013950080
       9282.3778    0.0090051260
       9283.6476     0.012274740
       9284.9175     0.010507450
       9286.1873    0.0063590660
       9287.4572     0.010659050
       9288.7271     0.014423250
       9289.9970     0.017088850
       9291.2668     0.016340210
       9292.5367     0.020027600
       9293.8065     0.014054610
       9295.0764    0.0088959670
       9296.3462     0.010835870
       9297.6161     0.015578660
       9298.8859     0.017551020
       9300.1558     0.012190050
       9301.4257     0.012722620
       9302.6955    0.0072542820
       9303.9654    0.0026879820
       9305.2353   0.00084828590
       9306.5052    0.0075549970
       9307.7750     0.021564480
       9309.0449     0.014668480
       9310.3147     0.012879420
       9311.5846     0.011088980
       9312.8544    0.0092999170
       9314.1243    0.0075108550
       9315.3941    0.0057204180
       9316.6640    0.0039313560
       9317.9338    0.0021422940
       9319.2037   0.00035185650
       9320.4735   -0.0014372050
       9321.7435   -0.0032262660
       9323.0134   -0.0050167040
       9324.2832   -0.0054146720
       9325.5531    0.0086173480
       9326.8229     0.017501820
       9328.0928    0.0043461070
       9329.3626     0.018904500
       9330.6325    0.0083361290
       9331.9023    0.0078822250
       9333.1722    0.0067174180
       9334.4420    0.0038256460
       9335.7119    -0.013131790
       9336.9817    -0.017577500
       9338.2516    0.0096365560
       9339.5215     0.012338110
       9340.7914   0.00048129470
       9342.0612   -0.0014860490
       9343.3311   0.00037488370
       9344.6010   -0.0022320240
       9345.8708    0.0024406490
       9347.1407    0.0080609630
       9348.4105     0.015386090
       9349.6804    0.0048412370
       9350.9502   -0.0057554040
       9352.2201    0.0043093990
       9353.4899    0.0097207520
       9354.7598    0.0083817080
       9356.0297    0.0091555780
       9357.2996    0.0071281590
       9358.5694     0.011409110
       9359.8393     0.010796200
       9361.1091    0.0033767300
       9362.3790     0.019566120
       9363.6488     0.018968020
       9364.9187    0.0085542300
       9366.1886    0.0049335230
       9367.4584    0.0045891210
       9368.7283   0.00079322970
       9369.9981    0.0033466450
       9371.2680    0.0039727670
       9372.5379    0.0045993710
       9373.8078    0.0052254930
       9375.0776    0.0058516150
       9376.3475    0.0064782190
       9377.6173    0.0071043410
       9378.8872    0.0077304640
       9380.1570    0.0083570680
       9381.4269    0.0089831890
       9382.6967    0.0096093120
       9383.9666     0.010235920
       9385.2364    0.0043850780
       9386.5063     0.019016320
       9387.7762     0.018888390
       9389.0461   0.00083069220
       9390.3160    0.0089742390
       9391.5858     0.022679100
       9392.8557     0.017382830
       9394.1255     0.016606710
       9395.3954     0.017034260
       9396.6652    0.0029715470
       9397.9351    -0.012721130
       9399.2049   -0.0064235820
       9400.4748    0.0011510180
       9401.7446   -0.0045727430
       9403.0145    0.0041866470
       9404.2843    -0.011399620
       9405.5542     0.012099800
       9406.8241     0.014328450
       9408.0940     0.013531010
       9409.3639    0.0037340760
       9410.6337   -0.0037287000
       9411.9036    0.0014771100
       9413.1734     0.018497060
       9414.4433     0.013161080
       9415.7131     0.023898710
       9416.9830     0.018768450
       9418.2528    0.0064338790
       9419.5227    -0.030006330
       9420.7925    -0.019958500
       9422.0624    0.0046308130
       9423.3323     0.010647420
       9424.6022     0.016168950
       9425.8720     0.014479760
       9427.1419    0.0085395430
       9428.4118   -0.0018231280
       9429.6816   -0.0033246690
       9430.9515     0.012193200
       9432.2213     0.016468850
       9433.4912     0.011241070
       9434.7610    0.0018327320
       9436.0309    -0.012569330
       9437.3007  -0.00059915150
       9438.5706     0.011371030
       9439.8405     0.023350420
       9441.1104     0.035320600
       9442.3802     0.047290780
       9443.6501   -0.0055661870
       9444.9199     0.022932970
