Units are: observed wavelength (Ang), observed flux (10^-15 erg/s/cm^2/Ang)
       3600.0000      0.32096538
       3601.9498      0.30981678
       3603.8997      0.26992956
       3605.8496      0.26866987
       3607.7994      0.27779645
       3609.7493      0.28503165
       3611.6991      0.27348682
       3613.6490      0.24842872
       3615.5988      0.27700514
       3617.5488      0.34144366
       3619.4987      0.29931533
       3621.4485      0.30005524
       3623.3984      0.31651324
       3625.3482      0.30949247
       3627.2981      0.27892336
       3629.2479      0.27606240
       3631.1978      0.29691750
       3633.1476      0.28493464
       3635.0975      0.27564344
       3637.0474      0.30313990
       3638.9972      0.31770298
       3640.9471      0.30378020
       3642.8969      0.29524443
       3644.8468      0.29546058
       3646.7966      0.32137161
       3648.7465      0.31737724
       3650.6964      0.29010630
       3652.6462      0.31948978
       3654.5961      0.33438426
       3656.5459      0.32668000
       3658.4958      0.31733891
       3660.4456      0.29770458
       3662.3955      0.33119372
       3664.3454      0.35209814
       3666.2953      0.32470280
       3668.2452      0.35851794
       3670.1950      0.36097199
       3672.1449      0.33519444
       3674.0947      0.32917905
       3676.0446      0.34137726
       3677.9945      0.34421772
       3679.9443      0.36753023
       3681.8942      0.38077471
       3683.8440      0.36035553
       3685.7939      0.36991379
       3687.7437      0.40612677
       3689.6936      0.41831747
       3691.6435      0.39924800
       3693.5933      0.38014433
       3695.5432      0.37770915
       3697.4930      0.40499458
       3699.4429      0.42719430
       3701.3927      0.42466173
       3703.3426      0.42240778
       3705.2924      0.39443961
       3707.2423      0.40508580
       3709.1922      0.42473087
       3711.1420      0.40398756
       3713.0919      0.41108713
       3715.0417      0.42856109
       3716.9917      0.40964043
       3718.9415      0.39742562
       3720.8914      0.39923769
       3722.8413      0.41097349
       3724.7911      0.44731632
       3726.7410      0.45480090
       3728.6908      0.45957249
       3730.6407      0.41716677
       3732.5905      0.37863293
       3734.5404      0.38773945
       3736.4903      0.39488396
       3738.4401      0.39617261
       3740.3900      0.40948373
       3742.3398      0.44616774
       3744.2897      0.44795412
       3746.2395      0.42528439
       3748.1894      0.41389742
       3750.1393      0.38713425
       3752.0891      0.36778021
       3754.0390      0.37867853
       3755.9888      0.38288465
       3757.9387      0.35857582
       3759.8885      0.35313681
       3761.8384      0.35331422
       3763.7883      0.33742288
       3765.7382      0.33231989
       3767.6881      0.34040231
       3769.6379      0.34594825
       3771.5878      0.33975002
       3773.5376      0.33066601
       3775.4875      0.34091163
       3777.4374      0.32463080
       3779.3872      0.33706716
       3781.3371      0.33429620
       3783.2869      0.31078240
       3785.2368      0.30300760
       3787.1866      0.27624157
       3789.1365      0.25948450
       3791.0863      0.26199725
       3793.0362      0.27084950
       3794.9861      0.26500392
       3796.9359      0.23466538
       3798.8858      0.23623370
       3800.8356      0.24935246
       3802.7855      0.21649586
       3804.7353      0.18578768
       3806.6852      0.20646399
       3808.6351      0.23573343
       3810.5849      0.23024599
       3812.5348      0.21722157
       3814.4846      0.20896809
       3816.4346      0.20681582
       3818.3844      0.19111755
       3820.3343      0.20666258
       3822.2842      0.18686202
       3824.2340      0.17802857
       3826.1839      0.17427287
       3828.1337      0.19105189
       3830.0836      0.20803416
       3832.0334      0.19543497
       3833.9833      0.20161074
       3835.9332      0.21468432
       3837.8830      0.21912734
       3839.8329      0.23614392
       3841.7827      0.24645284
       3843.7326      0.24257489
       3845.6824      0.23951733
       3847.6323      0.24944545
       3849.5822      0.26859832
       3851.5320      0.29702958
       3853.4819      0.29099029
       3855.4317      0.27489385
       3857.3816      0.27246892
       3859.3314      0.31152970
       3861.2813      0.33710870
       3863.2312      0.34459653
       3865.1811      0.34508240
       3867.1310      0.36688873
       3869.0808      0.36323786
       3871.0307      0.37685814
       3872.9805      0.40268987
       3874.9304      0.41019332
       3876.8802      0.40778154
       3878.8301      0.43360627
       3880.7800      0.45747763
       3882.7298      0.45175672
       3884.6797      0.48475054
       3886.6295      0.52024353
       3888.5794      0.53846568
       3890.5292      0.55742431
       3892.4791      0.55353463
       3894.4290      0.55708569
       3896.3788      0.56343102
       3898.3287      0.57982349
       3900.2785      0.60375226
       3902.2284      0.58721972
       3904.1782      0.59699166
       3906.1281      0.62437952
       3908.0780      0.63183933
       3910.0278      0.67452431
       3911.9777      0.69648969
       3913.9275      0.69763839
       3915.8775      0.72045159
       3917.8273      0.73765242
       3919.7772      0.76446396
       3921.7271      0.77504301
       3923.6769      0.75225806
       3925.6268      0.74301434
       3927.5766      0.75940132
       3929.5265      0.76064605
       3931.4763      0.75817204
       3933.4262      0.78026646
       3935.3761      0.82444024
       3937.3259      0.82575887
       3939.2758      0.82158595
       3941.2256      0.85482246
       3943.1755      0.85606503
       3945.1253      0.84869832
       3947.0752      0.88147640
       3949.0251      0.90507978
       3950.9749      0.88271564
       3952.9248      0.85358441
       3954.8746      0.87336260
       3956.8245      0.91260821
       3958.7743      0.90792274
       3960.7242      0.89852577
       3962.6740      0.89990705
       3964.6240      0.93005252
       3966.5739      0.96250874
       3968.5237      0.99154252
       3970.4736       1.0059636
       3972.4234       1.0062835
       3974.3733       1.0044477
       3976.3231      0.97096962
       3978.2730      0.96174884
       3980.2229       1.0040909
       3982.1727      0.99599695
       3984.1226      0.95315254
       3986.0724      0.94610333
       3988.0223      0.97284698
       3989.9721      0.97318131
       3991.9220      0.94594842
       3993.8719      0.96984589
       3995.8217      0.98638850
       3997.7716      0.96528012
       3999.7214      0.94686455
       4001.6713      0.94250393
       4003.6211      0.97512704
       4005.5710      0.98548371
       4007.5209      0.95725763
       4009.4707      0.93644154
       4011.4206      0.93318737
       4013.3704      0.94269544
       4015.3204      0.93416435
       4017.2702      0.91879678
       4019.2201      0.94382554
       4021.1700      0.96571881
       4023.1198      0.94358897
       4025.0697      0.90370411
       4027.0195      0.89074332
       4028.9694      0.92736202
       4030.9192      0.94143885
       4032.8691      0.92043096
       4034.8190      0.88907373
       4036.7688      0.89065719
       4038.7187      0.91226131
       4040.6685      0.95342660
       4042.6184      0.93634826
       4044.5682      0.89044744
       4046.5181      0.89494812
       4048.4679      0.90992665
       4050.4178      0.94452029
       4052.3677      0.95267379
       4054.3175      0.90761769
       4056.2674      0.90097141
       4058.2172      0.90766835
       4060.1671      0.88094652
       4062.1169      0.86329335
       4064.0668      0.88525826
       4066.0168      0.88693404
       4067.9666      0.84062564
       4069.9165      0.79430950
       4071.8663      0.79906821
       4073.8162      0.82582289
       4075.7660      0.82028842
       4077.7159      0.81632191
       4079.6658      0.82339966
       4081.6156      0.80209798
       4083.5655      0.78078890
       4085.5153      0.77438420
       4087.4652      0.77389121
       4089.4150      0.76394558
       4091.3649      0.73531950
       4093.3148      0.72239763
       4095.2646      0.73238933
       4097.2145      0.74347162
       4099.1643      0.74259269
       4101.1142      0.70243096
       4103.0640      0.68476844
       4105.0139      0.69684821
       4106.9638      0.69335419
       4108.9136      0.64153332
       4110.8635      0.64475226
       4112.8133      0.67178422
       4114.7633      0.65974027
       4116.7131      0.66163206
       4118.6630      0.66793245
       4120.6129      0.64065117
       4122.5627      0.60093892
       4124.5126      0.59385842
       4126.4624      0.59995723
       4128.4123      0.59713185
       4130.3621      0.59905571
       4132.3120      0.60289848
       4134.2618      0.59577042
       4136.2117      0.57548857
       4138.1616      0.56056410
       4140.1114      0.55512029
       4142.0613      0.54104656
       4144.0111      0.53151083
       4145.9610      0.53748506
       4147.9108      0.53357494
       4149.8607      0.50526452
       4151.8106      0.49371630
       4153.7604      0.48307675
       4155.7103      0.47354016
       4157.6601      0.46984714
       4159.6100      0.46491569
       4161.5598      0.46787706
       4163.5097      0.44602206
       4165.4597      0.41267192
       4167.4095      0.41657236
       4169.3594      0.41489330
       4171.3092      0.42606488
       4173.2591      0.41123411
       4175.2089      0.41294706
       4177.1588      0.40842491
       4179.1087      0.41801560
       4181.0585      0.43371058
       4183.0084      0.41947484
       4184.9582      0.41359702
       4186.9081      0.41198772
       4188.8579      0.41287529
       4190.8078      0.42709881
       4192.7577      0.43629771
       4194.7075      0.44470352
       4196.6574      0.44016084
       4198.6072      0.43266970
       4200.5571      0.42692137
       4202.5069      0.42350289
       4204.4568      0.43814099
       4206.4066      0.46238944
       4208.3565      0.47285303
       4210.3064      0.47175607
       4212.2562      0.46408582
       4214.2062      0.47364694
       4216.1560      0.47429430
       4218.1059      0.48227757
       4220.0557      0.46996257
       4222.0056      0.47787294
       4223.9555      0.49964619
       4225.9053      0.50760144
       4227.8552      0.49795753
       4229.8050      0.49036628
       4231.7549      0.50383919
       4233.7047      0.53168833
       4235.6546      0.52575874
       4237.6045      0.52386540
       4239.5543      0.50401598
       4241.5042      0.49871656
       4243.4540      0.51716369
       4245.4039      0.53179479
       4247.3537      0.51295531
       4249.3036      0.48953599
       4251.2535      0.48796633
       4253.2033      0.49000257
       4255.1532      0.51661211
       4257.1030      0.51861596
       4259.0529      0.51605141
       4261.0027      0.50803858
       4262.9526      0.48490766
       4264.9026      0.48611200
       4266.8524      0.50868237
       4268.8023      0.50986826
       4270.7521      0.50397348
       4272.7020      0.50323868
       4274.6518      0.49569118
       4276.6017      0.49519110
       4278.5516      0.50366288
       4280.5014      0.51670372
       4282.4513      0.51102638
       4284.4011      0.52212536
       4286.3510      0.51644820
       4288.3008      0.52927220
       4290.2507      0.54989851
       4292.2005      0.52272534
       4294.1504      0.47952393
       4296.1003      0.50362933
       4298.0501      0.52628857
       4300.0000      0.52495551
       4301.9498      0.54016370
       4303.8997      0.53715950
       4305.8495      0.52563769
       4307.7994      0.52290285
       4309.7493      0.52898639
       4311.6991      0.54210627
       4313.6491      0.54511565
       4315.5989      0.52308232
       4317.5488      0.53206408
       4319.4986      0.53033841
       4321.4485      0.54351574
       4323.3984      0.52222872
       4325.3482      0.51538658
       4327.2981      0.54470342
       4329.2479      0.55746830
       4331.1978      0.55616927
       4333.1476      0.55585504
       4335.0975      0.53397089
       4337.0474      0.52330726
       4338.9972      0.56669790
       4340.9471      0.59698433
       4342.8969      0.58499771
       4344.8468      0.57526332
       4346.7966      0.54644710
       4348.7465      0.55654776
       4350.6964      0.58336985
       4352.6462      0.57445747
       4354.5961      0.59030938
       4356.5459      0.59976071
       4358.4958      0.58846688
       4360.4456      0.58606666
       4362.3955      0.59627330
       4364.3455      0.59420621
       4366.2953      0.59021538
       4368.2452      0.59986222
       4370.1950      0.58997315
       4372.1449      0.57827044
       4374.0947      0.58218372
       4376.0446      0.60350746
       4377.9944      0.59264314
       4379.9443      0.57260174
       4381.8942      0.58767796
       4383.8440      0.59240776
       4385.7939      0.57624835
       4387.7437      0.56498367
       4389.6936      0.57892442
       4391.6434      0.57955843
       4393.5933      0.55940443
       4395.5432      0.57817894
       4397.4930      0.58581305
       4399.4429      0.55390769
       4401.3927      0.53027052
       4403.3426      0.54100478
       4405.2924      0.54824042
       4407.2423      0.55138344
       4409.1922      0.55023819
       4411.1420      0.54231936
       4413.0920      0.54784149
       4415.0418      0.54224813
       4416.9917      0.51872814
       4418.9415      0.50800765
       4420.8914      0.51446927
       4422.8413      0.50471997
       4424.7911      0.48292843
       4426.7410      0.49151808
       4428.6908      0.50040352
       4430.6407      0.50070608
       4432.5905      0.49665919
       4434.5404      0.49492893
       4436.4903      0.50298870
       4438.4401      0.51149362
       4440.3900      0.52764559
       4442.3398      0.52277505
       4444.2897      0.50991178
       4446.2395      0.50953740
       4448.1894      0.53330702
       4450.1393      0.53437871
       4452.0891      0.54672122
       4454.0390      0.55132604
       4455.9888      0.56706208
       4457.9387      0.58512986
       4459.8885      0.58328235
       4461.8384      0.58053416
       4463.7883      0.59517545
       4465.7382      0.61178750
       4467.6881      0.61717743
       4469.6379      0.62717617
       4471.5878      0.64656848
       4473.5376      0.63834602
       4475.4875      0.62424809
       4477.4373      0.64719898
       4479.3872      0.68361264
       4481.3371      0.70851207
       4483.2869      0.71191126
       4485.2368      0.70634216
       4487.1866      0.74287665
       4489.1365      0.77728170
       4491.0863      0.76364112
       4493.0362      0.76781678
       4494.9861      0.78426892
       4496.9359      0.78325200
       4498.8858      0.82109994
       4500.8356      0.84096020
       4502.7855      0.86020613
       4504.7353      0.87077361
       4506.6852      0.87436110
       4508.6351      0.89459705
       4510.5849      0.89265394
       4512.5349      0.89366752
       4514.4847      0.92082977
       4516.4346      0.95835149
       4518.3844      0.97937828
       4520.3343      0.96853018
       4522.2842      0.97012329
       4524.2340      0.98802924
       4526.1839       1.0084888
       4528.1337       1.0421991
       4530.0836       1.0575343
       4532.0334       1.0342499
       4533.9833       1.0573381
       4535.9331       1.0972903
       4537.8830       1.0977988
       4539.8329       1.1130354
       4541.7827       1.1600364
       4543.7326       1.1969746
       4545.6824       1.1937704
       4547.6323       1.2140726
       4549.5821       1.2567568
       4551.5320       1.2352326
       4553.4819       1.2204115
       4555.4317       1.2559092
       4557.3816       1.2909459
       4559.3314       1.3326815
       4561.2813       1.3432882
       4563.2312       1.3217430
       4565.1811       1.3069985
       4567.1310       1.3319110
       4569.0808       1.3542229
       4571.0307       1.3865241
       4572.9805       1.4041361
       4574.9304       1.4283136
       4576.8802       1.4425396
       4578.8301       1.4597508
       4580.7800       1.4573306
       4582.7298       1.5072248
       4584.6797       1.5314155
       4586.6295       1.5684482
       4588.5794       1.6071706
       4590.5292       1.6016796
       4592.4791       1.6653879
       4594.4290       1.6517689
       4596.3788       1.6223229
       4598.3287       1.6737988
       4600.2785       1.7220312
       4602.2284       1.6976849
       4604.1782       1.6548308
       4606.1281       1.7142128
       4608.0780       1.7169935
       4610.0278       1.6691744
       4611.9778       1.6712158
       4613.9276       1.6882073
       4615.8775       1.7081747
       4617.8273       1.7094020
       4619.7772       1.6987251
       4621.7270       1.6439916
       4623.6769       1.6474557
       4625.6268       1.6758538
       4627.5766       1.6651281
       4629.5265       1.6908993
       4631.4763       1.7372118
       4633.4262       1.7676576
       4635.3760       1.7360102
       4637.3259       1.7366077
       4639.2758       1.7664008
       4641.2256       1.7581404
       4643.1755       1.7077856
       4645.1253       1.6746814
       4647.0752       1.6944978
       4649.0250       1.7228884
       4650.9749       1.7119838
       4652.9248       1.6979377
       4654.8746       1.6792752
       4656.8245       1.6410369
       4658.7743       1.5975085
       4660.7242       1.5676305
       4662.6741       1.5827408
       4664.6240       1.6082618
       4666.5739       1.5992161
       4668.5237       1.5774560
       4670.4736       1.5542918
       4672.4234       1.5325295
       4674.3733       1.5014544
       4676.3231       1.4708632
       4678.2730       1.4470708
       4680.2229       1.4566782
       4682.1727       1.4476031
       4684.1226       1.4023769
       4686.0724       1.4206811
       4688.0223       1.3933874
       4689.9721       1.3681117
       4691.9220       1.3821989
       4693.8719       1.3306035
       4695.8217       1.2945765
       4697.7716       1.3059967
       4699.7214       1.3042101
       4701.6713       1.3098748
       4703.6211       1.2815585
       4705.5710       1.2205269
       4707.5208       1.1982424
       4709.4707       1.1709718
       4711.4207       1.1266198
       4713.3705       1.1312819
       4715.3204       1.1240057
       4717.2702       1.0928782
       4719.2201       1.1146678
       4721.1699       1.1459658
       4723.1198       1.1371067
       4725.0697       1.1259950
       4727.0195       1.1388749
       4728.9694       1.1308351
       4730.9192       1.1285002
       4732.8691       1.1446640
       4734.8189       1.1351320
       4736.7688       1.1255729
       4738.7187       1.1287171
       4740.6685       1.1114322
       4742.6184       1.1064432
       4744.5682       1.1195273
       4746.5181       1.0999527
       4748.4679       1.0893050
       4750.4178       1.1012818
       4752.3677       1.0724591
       4754.3175       1.0474141
       4756.2674       1.0380801
       4758.2172       1.0347054
       4760.1671       1.0414827
       4762.1170       1.0527719
       4764.0669       1.0619433
       4766.0168       1.0401894
       4767.9666       1.0392950
       4769.9165       1.0433279
       4771.8663       1.0139931
       4773.8162      0.99735606
       4775.7660      0.98605174
       4777.7159      0.97725499
       4779.6658      0.95943308
       4781.6156      0.93938947
       4783.5655      0.94034016
       4785.5153      0.95459783
       4787.4652      0.95677447
       4789.4150      0.93396991
       4791.3649      0.91386467
       4793.3147      0.90137857
       4795.2646      0.90504909
       4797.2145      0.90314871
       4799.1643      0.89392942
       4801.1142      0.88626605
       4803.0640      0.90947819
       4805.0139      0.90072125
       4806.9637      0.86105776
       4808.9136      0.86246681
       4810.8636      0.91465247
       4812.8134      0.92518836
       4814.7633      0.89720815
       4816.7131      0.89760834
       4818.6630      0.89944303
       4820.6128      0.89563835
       4822.5627      0.90899342
       4824.5126      0.94967592
       4826.4624      0.97227138
       4828.4123      0.97721148
       4830.3621      0.95730275
       4832.3120      0.94645584
       4834.2618      0.98364580
       4836.2117      0.99650097
       4838.1616      0.96988082
       4840.1114      0.97396177
       4842.0613      0.99748278
       4844.0111      0.99133080
       4845.9610      0.98231310
       4847.9108      0.98879486
       4849.8607       1.0131934
       4851.8106       1.0191838
       4853.7604      0.98146617
       4855.7103      0.96512562
       4857.6601      0.98890007
       4859.6100      0.99366182
       4861.5599      0.96006066
       4863.5098      0.95621330
       4865.4597      0.95364547
       4867.4095      0.93831164
       4869.3594      0.95149499
       4871.3092      0.95895427
       4873.2591      0.94151926
       4875.2089      0.93757623
       4877.1588      0.93320358
       4879.1086      0.92500401
       4881.0585      0.92270434
       4883.0084      0.92292655
       4884.9582      0.95159513
       4886.9081      0.96836692
       4888.8579      0.96165913
       4890.8078      0.95681685
       4892.7576      0.97855425
       4894.7075       1.0041609
       4896.6574      0.99602449
       4898.6072      0.99426478
       4900.5571       1.0148877
       4902.5069       1.0263754
       4904.4568       1.0006117
       4906.4066      0.99780995
       4908.3565       1.0063208
       4910.3064       1.0026640
       4912.2563       1.0222476
       4914.2062       1.0316758
       4916.1560       1.0439976
       4918.1059       1.0635123
       4920.0557       1.0673348
       4922.0056       1.0772892
       4923.9555       1.0808234
       4925.9053       1.0933118
       4927.8552       1.1367366
       4929.8050       1.1524496
       4931.7549       1.1498934
       4933.7047       1.1575925
       4935.6546       1.1674279
       4937.6045       1.1767132
       4939.5543       1.2026001
       4941.5042       1.2439562
       4943.4540       1.2671497
       4945.4039       1.2869217
       4947.3537       1.3322576
       4949.3036       1.3558860
       4951.2534       1.3373519
       4953.2033       1.3543227
       4955.1532       1.3636709
       4957.1030       1.3691013
       4959.0529       1.3986617
       4961.0028       1.4229153
       4962.9527       1.4561850
       4964.9025       1.4756007
       4966.8524       1.4558666
       4968.8023       1.4390365
       4970.7521       1.4628458
       4972.7020       1.4803053
       4974.6518       1.4683584
       4976.6017       1.4615749
       4978.5515       1.4426589
       4980.5014       1.4411898
       4982.4513       1.4421666
       4984.4011       1.4177769
       4986.3510       1.3829583
       4988.3008       1.3453515
       4990.2507       1.3308672
       4992.2005       1.3076231
       4994.1504       1.2914524
       4996.1003       1.2992487
       4998.0501       1.2671773
       5000.0000       1.2208972
       5001.9498       1.2130342
       5003.8997       1.2084177
       5005.8495       1.1783861
       5007.7994       1.1672635
       5009.7493       1.1584464
       5011.6992       1.1233052
       5013.6491       1.0874555
       5015.5989       1.0479934
       5017.5488       1.0085226
       5019.4986      0.99383527
       5021.4485      0.98533332
       5023.3984      0.96383971
       5025.3482      0.94572884
       5027.2981      0.95612520
       5029.2479       1.0178986
       5031.1978       1.0466367
       5033.1476      0.98795813
       5035.0975      0.90839040
       5037.0473      0.90273672
       5038.9972      0.92687142
       5040.9471      0.89063632
       5042.8969      0.84850782
       5044.8468      0.83758926
       5046.7966      0.81454182
       5048.7465      0.79540622
       5050.6963      0.80949688
       5052.6462      0.81401795
       5054.5961      0.80180413
       5056.5459      0.79778051
       5058.4958      0.79823822
       5060.4457      0.79941124
       5062.3956      0.78278124
       5064.3454      0.76789147
       5066.2953      0.78847444
       5068.2452      0.80949867
       5070.1950      0.79870772
       5072.1449      0.78300464
       5074.0947      0.78223538
       5076.0446      0.79702270
       5077.9944      0.80798048
       5079.9443      0.80517501
       5081.8942      0.80503106
       5083.8440      0.81379884
       5085.7939      0.81986254
       5087.7437      0.81756425
       5089.6936      0.81722707
       5091.6434      0.82201898
       5093.5933      0.82764107
       5095.5432      0.83904320
       5097.4930      0.83607358
       5099.4429      0.84312153
       5101.3927      0.86685216
       5103.3426      0.86904228
       5105.2924      0.86676145
       5107.2423      0.87683094
       5109.1922      0.90015537
       5111.1421      0.91605479
       5113.0920      0.92282605
       5115.0418      0.93928480
       5116.9917      0.94363707
       5118.9415      0.95078212
       5120.8914      0.96605366
       5122.8412      0.96788478
       5124.7911      0.97402972
       5126.7410      0.99327916
       5128.6908       1.0193180
       5130.6407       1.0287013
       5132.5905       1.0236959
       5134.5404       1.0300884
       5136.4902       1.0461144
       5138.4401       1.0609275
       5140.3900       1.0743687
       5142.3398       1.0722182
       5144.2897       1.0958918
       5146.2395       1.1329436
       5148.1894       1.1421187
       5150.1392       1.1360019
       5152.0891       1.1173288
       5154.0390       1.0968745
       5155.9888       1.1215878
       5157.9387       1.1174127
       5159.8886       1.1226655
       5161.8385       1.1432366
       5163.7883       1.1437223
       5165.7382       1.1342233
       5167.6881       1.1412640
       5169.6379       1.1462728
       5171.5878       1.1511804
       5173.5376       1.1712554
       5175.4875       1.1802387
       5177.4373       1.1722797
       5179.3872       1.1436831
       5181.3371       1.1333151
       5183.2869       1.1752046
       5185.2368       1.2034034
       5187.1866       1.1865729
       5189.1365       1.1932327
       5191.0863       1.2114838
       5193.0362       1.2082335
       5194.9861       1.1880357
       5196.9359       1.1800789
       5198.8858       1.2002503
       5200.8356       1.2200904
       5202.7855       1.2168026
       5204.7353       1.2202312
       5206.6852       1.2385355
       5208.6350       1.2428645
       5210.5850       1.2330031
       5212.5349       1.2374188
       5214.4847       1.2514391
       5216.4346       1.2831154
       5218.3844       1.3184648
       5220.3343       1.3207077
       5222.2841       1.3237447
       5224.2340       1.3452570
       5226.1839       1.3642683
       5228.1337       1.3938608
       5230.0836       1.4234931
       5232.0334       1.4256897
       5233.9833       1.4414730
       5235.9331       1.4443964
       5237.8830       1.4172343
       5239.8329       1.4295837
       5241.7827       1.4525557
       5243.7326       1.4532356
       5245.6824       1.4502277
       5247.6323       1.4570309
       5249.5821       1.4759862
       5251.5320       1.4845089
       5253.4819       1.4934974
       5255.4317       1.5155267
       5257.3816       1.5115227
       5259.3315       1.5070562
       5261.2814       1.5338970
       5263.2312       1.5498481
       5265.1811       1.5484283
       5267.1310       1.5538813
       5269.0808       1.5727102
       5271.0307       1.5749408
       5272.9805       1.5560362
       5274.9304       1.5456847
       5276.8802       1.5431660
       5278.8301       1.5749116
       5280.7800       1.6127949
       5282.7298       1.6111107
       5284.6797       1.6385732
       5286.6295       1.6629015
       5288.5794       1.6575513
       5290.5292       1.6913998
       5292.4791       1.7333237
       5294.4289       1.7484806
       5296.3788       1.7555249
       5298.3287       1.7719496
       5300.2785       1.7673135
       5302.2284       1.7511162
       5304.1782       1.7636751
       5306.1281       1.7694712
       5308.0779       1.7864684
       5310.0279       1.8124577
       5311.9778       1.7910185
       5313.9276       1.7544471
       5315.8775       1.7746913
       5317.8273       1.8165765
       5319.7772       1.8070643
       5321.7270       1.7885790
       5323.6769       1.8069532
       5325.6268       1.8394268
       5327.5766       1.8697655
       5329.5265       1.8948036
       5331.4763       1.8897691
       5333.4262       1.8696311
       5335.3760       1.8799189
       5337.3259       1.9128774
       5339.2758       1.9307829
       5341.2256       1.9399179
       5343.1755       1.9502990
       5345.1253       1.9551605
       5347.0752       1.9677656
       5349.0250       1.9830142
       5350.9749       1.9951584
       5352.9248       2.0141609
       5354.8746       2.0099647
       5356.8245       1.9731575
       5358.7744       1.9593344
       5360.7243       1.9703666
       5362.6741       1.9662457
       5364.6240       1.9494281
       5366.5738       1.9347183
       5368.5237       1.9174287
       5370.4736       1.9032946
       5372.4234       1.9357426
       5374.3733       1.9706728
       5376.3231       1.9487770
       5378.2730       1.9340184
       5380.2228       1.9324863
       5382.1727       1.9373161
       5384.1226       1.9576993
       5386.0724       1.9481097
       5388.0223       1.9407554
       5389.9721       1.9559112
       5391.9220       1.9410263
       5393.8718       1.9058332
       5395.8217       1.8862923
       5397.7716       1.8763387
       5399.7214       1.8806624
       5401.6713       1.8702996
       5403.6211       1.8512678
       5405.5710       1.8548950
       5407.5208       1.8520236
       5409.4708       1.8158516
       5411.4207       1.7975875
       5413.3705       1.8093774
       5415.3204       1.7844275
       5417.2702       1.7582581
       5419.2201       1.7769256
       5421.1699       1.7828448
       5423.1198       1.7485354
       5425.0697       1.7296183
       5427.0195       1.7169552
       5428.9694       1.6938742
       5430.9192       1.6910305
       5432.8691       1.6973147
       5434.8189       1.7119555
       5436.7688       1.7062985
       5438.7187       1.6899917
       5440.6685       1.6938910
       5442.6184       1.6854377
       5444.5682       1.6814542
       5446.5181       1.6616840
       5448.4679       1.6467408
       5450.4178       1.6638221
       5452.3676       1.6584023
       5454.3175       1.6604873
       5456.2674       1.6742228
       5458.2173       1.6869121
       5460.1672       1.7383566
       5462.1170       1.7914652
       5464.0669       1.7887620
       5466.0167       1.7898877
       5467.9666       1.8262832
       5469.9165       1.8452790
       5471.8663       1.8740113
       5473.8162       1.9453288
       5475.7660       2.0000837
       5477.7159       2.0184455
       5479.6657       2.0530138
       5481.6156       2.1128523
       5483.5655       2.1406436
       5485.5153       2.1530979
       5487.4652       2.2000203
       5489.4150       2.2674434
       5491.3649       2.2904747
       5493.3147       2.2853441
       5495.2646       2.3239872
       5497.2145       2.4204314
       5499.1643       2.5016270
       5501.1142       2.5386553
       5503.0640       2.5535858
       5505.0139       2.5712774
       5506.9637       2.5882907
       5508.9137       2.6130497
       5510.8636       2.6515734
       5512.8134       2.6677473
       5514.7633       2.7117460
       5516.7131       2.7655311
       5518.6630       2.7348354
       5520.6128       2.6867268
       5522.5627       2.6894560
       5524.5126       2.7250366
       5526.4624       2.7177477
       5528.4123       2.6682589
       5530.3621       2.6519537
       5532.3120       2.6327233
       5534.2618       2.6311369
       5536.2117       2.6715736
       5538.1615       2.6598034
       5540.1114       2.6052029
       5542.0613       2.5786507
       5544.0111       2.5698147
       5545.9610       2.5083947
       5547.9108       2.4370458
       5549.8607       2.4221327
       5551.8105       2.3905768
       5553.7604       2.3411665
       5555.7103       2.3105316
       5557.6602       2.2826800
       5559.6101       2.2234704
       5561.5599       2.1813762
       5563.5098       2.1820080
       5565.4596       2.1332271
       5567.4095       2.0637929
       5569.3594       2.0226901
       5571.3092       1.9931439
       5573.2591       1.9884250
       5575.2089       1.9950596
       5577.1588       1.9733250
       5579.1086       1.9261223
       5581.0585       1.8583825
       5583.0084       1.8177938
       5584.9582       1.8265442
       5586.9081       1.8151119
       5588.8579       1.7666142
       5590.8078       1.7526468
       5592.7576       1.7966994
       5594.7075       1.8173728
       5596.6574       1.7961754
       5598.6072       1.7949452
       5600.5571       1.8084280
       5602.5069       1.7917802
       5604.4568       1.8096597
       5606.4066       1.8443887
       5608.3566       1.8578789
       5610.3065       1.8923498
       5612.2563       1.8921435
       5614.2062       1.9008625
       5616.1560       1.9564958
       5618.1059       1.9947158
       5620.0557       1.9951479
       5622.0056       1.9938867
       5623.9554       2.0514429
       5625.9053       2.1234291
       5627.8552       2.1145344
       5629.8050       2.0916269
       5631.7549       2.1263242
       5633.7047       2.1805725
       5635.6546       2.2356060
       5637.6044       2.3069832
       5639.5543       2.3129401
       5641.5042       2.2597182
       5643.4540       2.2619815
       5645.4039       2.3232889
       5647.3537       2.3393126
       5649.3036       2.3089736
       5651.2534       2.2816458
       5653.2033       2.2772970
       5655.1532       2.3019764
       5657.1031       2.2977107
       5659.0530       2.2460115
       5661.0028       2.2012627
       5662.9527       2.1592622
       5664.9025       2.0868521
       5666.8524       2.0234165
       5668.8023       1.9805675
       5670.7521       1.9278351
       5672.7020       1.8726116
       5674.6518       1.8131450
       5676.6017       1.7695719
       5678.5515       1.7366034
       5680.5014       1.6948972
       5682.4513       1.6991899
       5684.4011       1.6644212
       5686.3510       1.5829283
       5688.3008       1.5666800
       5690.2507       1.5655227
       5692.2005       1.5388029
       5694.1504       1.4952048
       5696.1002       1.4545946
       5698.0501       1.4305550
       5700.0000       1.4321710
       5701.9498       1.4184391
       5703.8997       1.4270489
       5705.8495       1.4147326
       5707.7995       1.3656420
       5709.7493       1.3151796
       5711.6992       1.2920165
       5713.6491       1.2991422
       5715.5989       1.2722253
       5717.5488       1.2459303
       5719.4986       1.2426114
       5721.4485       1.2592251
       5723.3983       1.2513021
       5725.3482       1.1967747
       5727.2981       1.1852098
       5729.2479       1.2118175
       5731.1978       1.2219164
       5733.1476       1.2226591
       5735.0975       1.2273993
       5737.0473       1.2266413
       5738.9972       1.2375816
       5740.9471       1.2567902
       5742.8969       1.2340758
       5744.8468       1.2339642
       5746.7966       1.2292283
       5748.7465       1.1868235
       5750.6963       1.1718717
       5752.6462       1.1905824
       5754.5961       1.1725185
       5756.5459       1.1470277
       5758.4959       1.1448274
       5760.4457       1.1306664
       5762.3956       1.1602651
       5764.3454       1.1986411
       5766.2953       1.1553012
       5768.2452       1.1327149
       5770.1950       1.1755854
       5772.1449       1.1763494
       5774.0947       1.1351937
       5776.0446       1.1264031
       5777.9944       1.1514685
       5779.9443       1.1570568
       5781.8941       1.1225123
       5783.8440       1.0982424
       5785.7939       1.1219894
       5787.7437       1.1181396
       5789.6936       1.1079764
       5791.6434       1.1233928
       5793.5933       1.1321344
       5795.5431       1.1667277
       5797.4930       1.1749960
       5799.4429       1.1383083
       5801.3927       1.1165296
       5803.3426       1.1125820
       5805.2924       1.1321340
       5807.2424       1.1585062
       5809.1922       1.1655136
       5811.1421       1.2144284
       5813.0920       1.2516704
       5815.0418       1.2423332
       5816.9917       1.2764798
       5818.9415       1.3110987
       5820.8914       1.3155955
       5822.8412       1.3359592
       5824.7911       1.3709594
       5826.7410       1.4232906
       5828.6908       1.4700137
       5830.6407       1.5241065
       5832.5905       1.5525374
       5834.5404       1.5889069
       5836.4902       1.6577712
       5838.4401       1.7247261
       5840.3900       1.7248783
       5842.3398       1.7367448
       5844.2897       1.7662226
       5846.2395       1.8126101
       5848.1894       1.8883433
       5850.1392       1.9243826
       5852.0891       1.9713075
       5854.0390       1.9986215
       5855.9888       2.0130234
       5857.9388       2.0739417
       5859.8886       2.1062002
       5861.8385       2.1093669
       5863.7883       2.1197672
       5865.7382       2.1716490
       5867.6880       2.2065268
       5869.6379       2.2048833
       5871.5878       2.2130358
       5873.5376       2.2588344
       5875.4875       2.3278108
       5877.4373       2.3220785
       5879.3872       2.3304923
       5881.3370       2.3651092
       5883.2869       2.3659115
       5885.2368       2.4265404
       5887.1866       2.4136131
       5889.1365       2.3370850
       5891.0863       2.3511133
       5893.0362       2.4256239
       5894.9860       2.4255974
       5896.9359       2.4323041
       5898.8858       2.4701109
       5900.8356       2.4456494
       5902.7855       2.4740772
       5904.7353       2.5068343
       5906.6853       2.5189524
       5908.6351       2.5206509
       5910.5850       2.4942653
       5912.5349       2.5203135
       5914.4847       2.4974535
       5916.4346       2.4234440
       5918.3844       2.4080899
       5920.3343       2.4536598
       5922.2841       2.4724598
       5924.2340       2.4928372
       5926.1839       2.4933310
       5928.1337       2.4575887
       5930.0836       2.4702775
       5932.0334       2.5192497
       5933.9833       2.5321205
       5935.9331       2.4865808
       5937.8830       2.4389849
       5939.8329       2.4652123
       5941.7827       2.4964955
       5943.7326       2.4835389
       5945.6824       2.4270446
       5947.6323       2.4086349
       5949.5821       2.4448223
       5951.5320       2.4363086
       5953.4818       2.4238188
       5955.4317       2.4862003
       5957.3817       2.4550118
       5959.3315       2.3781998
       5961.2814       2.3539283
       5963.2312       2.3706288
       5965.1811       2.3722324
       5967.1309       2.3700948
       5969.0808       2.3898914
       5971.0307       2.3585575
       5972.9805       2.2876487
       5974.9304       2.2906485
       5976.8802       2.3263316
       5978.8301       2.2867694
       5980.7799       2.2517376
       5982.7298       2.2924781
       5984.6797       2.2952807
       5986.6295       2.2557693
       5988.5794       2.2839203
       5990.5292       2.3333557
       5992.4791       2.3013546
       5994.4289       2.2634547
       5996.3788       2.2944245
       5998.3287       2.3004932
       6000.2785       2.2549019
       6002.2284       2.2071159
       6004.1782       2.2412245
       6006.1282       2.2313519
       6008.0780       2.1887424
       6010.0279       2.1251323
       6011.9778       2.0741782
       6013.9276       2.0688028
       6015.8775       2.0838091
       6017.8273       2.0666399
       6019.7772       2.0373371
       6021.7270       2.0574183
       6023.6769       2.0551867
       6025.6268       2.0201862
       6027.5766       1.9726794
       6029.5265       1.9507667
       6031.4763       1.9814167
       6033.4262       1.9732873
       6035.3760       1.9207762
       6037.3259       1.8891890
       6039.2757       1.8943812
       6041.2256       1.8550600
       6043.1755       1.8074795
       6045.1253       1.8238211
       6047.0752       1.8310809
       6049.0250       1.8181164
       6050.9749       1.7911654
       6052.9247       1.7896582
       6054.8746       1.7704881
       6056.8246       1.7017560
       6058.7744       1.6294531
       6060.7243       1.6425700
       6062.6741       1.6491706
       6064.6240       1.6093729
       6066.5738       1.5635787
       6068.5237       1.5614890
       6070.4736       1.5840150
       6072.4234       1.5880392
       6074.3733       1.6020833
       6076.3231       1.5951484
       6078.2730       1.5816426
       6080.2228       1.5524659
       6082.1727       1.5551673
       6084.1226       1.5714802
       6086.0724       1.5776566
       6088.0223       1.6051879
       6089.9721       1.6381723
       6091.9220       1.6428533
       6093.8718       1.6591593
       6095.8217       1.6628599
       6097.7716       1.6696861
       6099.7214       1.6880691
       6101.6713       1.6886804
       6103.6211       1.6519606
       6105.5711       1.6534595
       6107.5209       1.6618505
       6109.4708       1.6714555
       6111.4207       1.6957960
       6113.3705       1.6620047
       6115.3204       1.6569840
       6117.2702       1.6890217
       6119.2201       1.6778694
       6121.1699       1.6722987
       6123.1198       1.7349600
       6125.0696       1.7570591
       6127.0195       1.7400749
       6128.9694       1.7085955
       6130.9192       1.6936280
       6132.8691       1.7339556
       6134.8189       1.7390461
       6136.7688       1.7255180
       6138.7186       1.7186341
       6140.6685       1.7404087
       6142.6184       1.7525703
       6144.5682       1.7524855
       6146.5181       1.7402948
       6148.4679       1.7719878
       6150.4178       1.8194557
       6152.3676       1.7642391
       6154.3175       1.7643632
       6156.2675       1.7759798
       6158.2173       1.7759854
       6160.1672       1.7902964
       6162.1170       1.7646854
       6164.0669       1.7768483
       6166.0167       1.7742882
       6167.9666       1.7799866
       6169.9165       1.8191258
       6171.8663       1.8143089
       6173.8162       1.8089131
       6175.7660       1.8107381
       6177.7159       1.8078414
       6179.6657       1.8154267
       6181.6156       1.8020176
       6183.5655       1.8406336
       6185.5153       1.8776110
       6187.4652       1.9233757
       6189.4150       1.9518445
       6191.3649       1.9213929
       6193.3147       1.9452925
       6195.2646       2.0099709
       6197.2144       2.0254321
       6199.1643       2.0027640
       6201.1142       2.0059812
       6203.0640       2.0268373
       6205.0140       2.0526471
       6206.9638       2.0729163
       6208.9137       2.0770485
       6210.8635       2.0879276
       6212.8134       2.0867274
       6214.7633       2.0848305
       6216.7131       2.0922909
       6218.6630       2.1090128
       6220.6128       2.1540120
       6222.5627       2.1873927
       6224.5125       2.1843584
       6226.4624       2.1568291
       6228.4123       2.1926494
       6230.3621       2.2277608
       6232.3120       2.2213173
       6234.2618       2.2009075
       6236.2117       2.1871927
       6238.1615       2.2003818
       6240.1114       2.2318211
       6242.0613       2.2124774
       6244.0111       2.1928737
       6245.9610       2.2011328
       6247.9108       2.2087929
       6249.8607       2.1752799
       6251.8105       2.1963670
       6253.7604       2.2305658
       6255.7104       2.1930387
       6257.6602       2.1688704
       6259.6101       2.1635084
       6261.5599       2.1645348
       6263.5098       2.1875043
       6265.4596       2.1669097
       6267.4095       2.1660652
       6269.3594       2.1921206
       6271.3092       2.2140894
       6273.2591       2.2373416
       6275.2089       2.2423861
       6277.1588       2.2309902
       6279.1086       2.2552526
       6281.0585       2.2384138
       6283.0083       2.1928358
       6284.9582       2.1737859
       6286.9081       2.1646676
       6288.8579       2.1966929
       6290.8078       2.2149515
       6292.7576       2.2262044
       6294.7075       2.2351053
       6296.6573       2.2329941
       6298.6072       2.2051682
       6300.5571       2.1677680
       6302.5069       2.1284440
       6304.4569       2.1120055
       6306.4067       2.1203742
       6308.3566       2.1430914
       6310.3064       2.1388800
       6312.2563       2.0809119
       6314.2062       2.0375316
       6316.1560       2.0287294
       6318.1059       2.0043526
       6320.0557       1.9727727
       6322.0056       1.9997855
       6323.9554       2.0049865
       6325.9053       1.9821249
       6327.8552       1.9777012
       6329.8050       1.9654230
       6331.7549       1.9344848
       6333.7047       1.9014797
       6335.6546       1.9426286
       6337.6044       1.9861640
       6339.5543       1.9534545
       6341.5042       1.9406805
       6343.4540       1.9388603
       6345.4039       1.9167577
       6347.3537       1.9074544
       6349.3036       1.8872656
       6351.2534       1.8776549
       6353.2033       1.8787234
       6355.1533       1.8602053
       6357.1031       1.8512429
       6359.0530       1.8461411
       6361.0028       1.8320469
       6362.9527       1.8376410
       6364.9025       1.8651458
       6366.8524       1.8660798
       6368.8022       1.8549019
       6370.7521       1.8387463
       6372.7020       1.8364825
       6374.6518       1.8622731
       6376.6017       1.8511921
       6378.5515       1.8273346
       6380.5014       1.8347965
       6382.4512       1.8385099
       6384.4011       1.8074002
       6386.3510       1.8068473
       6388.3008       1.8135358
       6390.2507       1.7741077
       6392.2005       1.7655121
       6394.1504       1.7826619
       6396.1002       1.7683785
       6398.0501       1.7522926
       6400.0000       1.7450533
       6401.9498       1.7419764
       6403.8998       1.7707708
       6405.8496       1.7713368
       6407.7995       1.7328467
       6409.7493       1.7066103
       6411.6992       1.6898478
       6413.6491       1.7096479
       6415.5989       1.7336556
       6417.5488       1.7535690
       6419.4986       1.8659006
       6421.4485       1.8432751
       6423.3983       1.8235500
       6425.3482       1.7265341
       6427.2981       1.7535359
       6429.2479       1.7375053
       6431.1978       1.6970950
       6433.1476       1.7235324
       6435.0975       1.7609340
       6437.0473       1.7664163
       6438.9972       1.7879632
       6440.9471       1.7998917
       6442.8969       1.7918072
       6444.8468       1.7984561
       6446.7966       1.7991141
       6448.7465       1.7788328
       6450.6963       1.7986684
       6452.6462       1.8857267
       6454.5961       1.9208788
       6456.5460       1.8963336
       6458.4959       1.9114211
       6460.4457       1.9439815
       6462.3956       1.9507604
       6464.3454       1.9522854
       6466.2953       1.9514889
       6468.2451       1.9626254
       6470.1950       1.9937984
       6472.1449       1.9904702
       6474.0947       1.9752662
       6476.0446       1.9644935
       6477.9944       1.9363022
       6479.9443       1.9650216
       6481.8941       2.0338132
       6483.8440       2.0394604
       6485.7939       1.9848306
       6487.7437       1.9582208
       6489.6936       1.9657284
       6491.6434       1.9560651
       6493.5933       1.9501014
       6495.5431       1.9768785
       6497.4930       1.9804350
       6499.4429       1.9714725
       6501.3927       2.0180612
       6503.3427       2.0456488
       6505.2925       2.0256329
       6507.2424       2.0056884
       6509.1922       1.9632351
       6511.1421       1.9282557
       6513.0920       1.9287049
       6515.0418       1.9362736
       6516.9917       1.9363089
       6518.9415       1.9498234
       6520.8914       1.9566224
       6522.8412       1.9041281
       6524.7911       1.8754731
       6526.7409       1.9149331
       6528.6908       1.9450256
       6530.6407       1.9380318
       6532.5905       1.9147176
       6534.5404       1.9017286
       6536.4902       1.9008524
       6538.4401       1.9184810
       6540.3899       1.9279845
       6542.3398       1.8919901
       6544.2897       1.8887100
       6546.2395       1.9170690
       6548.1894       1.9083071
       6550.1392       1.9050424
       6552.0891       1.9253564
       6554.0390       1.9107610
       6555.9889       1.9004798
       6557.9388       1.9215269
       6559.8886       1.9254658
       6561.8385       1.9487724
       6563.7883       2.0024202
       6565.7382       2.0014570
       6567.6880       1.9746097
       6569.6379       1.9896777
       6571.5878       2.0134697
       6573.5376       2.0243058
       6575.4875       2.0157936
       6577.4373       1.9674606
       6579.3872       1.9525235
       6581.3370       1.9931973
       6583.2869       2.0003049
       6585.2368       2.0062182
       6587.1866       2.0391359
       6589.1365       2.0298941
       6591.0863       2.0233719
       6593.0362       2.0691063
       6594.9860       2.0690560
       6596.9359       2.0076647
       6598.8858       1.9780308
       6600.8356       1.9728404
       6602.7855       1.9494958
       6604.7354       1.9242322
       6606.6853       1.9068748
       6608.6351       1.8890082
       6610.5850       1.8595637
       6612.5348       1.8526909
       6614.4847       1.8660671
       6616.4346       1.8568398
       6618.3844       1.8534405
       6620.3343       1.8517215
       6622.2841       1.8471333
       6624.2340       1.8581982
       6626.1838       1.8713104
       6628.1337       1.8896638
       6630.0836       1.8820232
       6632.0334       1.8306316
       6633.9833       1.7984054
       6635.9331       1.8071805
       6637.8830       1.8040333
       6639.8328       1.7950828
       6641.7827       1.7923597
       6643.7326       1.7883056
       6645.6824       1.7988898
       6647.6323       1.8022383
       6649.5821       1.7907424
       6651.5320       1.7726449
       6653.4819       1.7738702
       6655.4318       1.7909336
       6657.3817       1.7818546
       6659.3315       1.7752053
       6661.2814       1.7757328
       6663.2312       1.7448766
       6665.1811       1.7361680
       6667.1309       1.7599782
       6669.0808       1.7499315
       6671.0307       1.7384396
       6672.9805       1.7532178
       6674.9304       1.7596714
       6676.8802       1.7555565
       6678.8301       1.7397110
       6680.7799       1.7376202
       6682.7298       1.7641463
       6684.6797       1.7753918
       6686.6295       1.7676109
       6688.5794       1.7548699
       6690.5292       1.7365714
       6692.4791       1.7085243
       6694.4289       1.6949244
       6696.3788       1.7025036
       6698.3286       1.7060552
       6700.2785       1.7014229
       6702.2284       1.6742758
       6704.1783       1.6955051
       6706.1282       1.7636796
       6708.0780       1.7222490
       6710.0279       1.6288463
       6711.9777       1.6341081
       6713.9276       1.6720966
       6715.8775       1.6668166
       6717.8273       1.6516660
       6719.7772       1.6320943
       6721.7270       1.6001620
       6723.6769       1.5794761
       6725.6267       1.5897436
       6727.5766       1.6103477
       6729.5265       1.6045555
       6731.4763       1.5874302
       6733.4262       1.5880618
       6735.3760       1.5858619
       6737.3259       1.5633711
       6739.2757       1.5615926
       6741.2256       1.6022338
       6743.1755       1.6222171
       6745.1253       1.5849625
       6747.0752       1.5520893
       6749.0250       1.5390770
       6750.9749       1.5244168
       6752.9248       1.5053433
       6754.8747       1.4893482
       6756.8246       1.4885061
       6758.7744       1.5264056
       6760.7243       1.5566103
       6762.6741       1.5439056
       6764.6240       1.5280648
       6766.5738       1.5304282
       6768.5237       1.5444472
       6770.4736       1.5582024
       6772.4234       1.5497552
       6774.3733       1.5385301
       6776.3231       1.5338285
       6778.2730       1.5203742
       6780.2228       1.5257422
       6782.1727       1.5305499
       6784.1225       1.5323366
       6786.0724       1.5490518
       6788.0223       1.5810099
       6789.9721       1.5925571
       6791.9220       1.5459824
       6793.8718       1.5262723
       6795.8217       1.5690905
       6797.7715       1.5832415
       6799.7214       1.5557517
       6801.6713       1.5586125
       6803.6212       1.5709499
       6805.5711       1.5764866
       6807.5209       1.5604385
       6809.4708       1.5343976
       6811.4206       1.5160395
       6813.3705       1.5455610
       6815.3204       1.5713410
       6817.2702       1.5380551
       6819.2201       1.5339630
       6821.1699       1.5680012
       6823.1198       1.5551990
       6825.0696       1.5431943
       6827.0195       1.5611001
       6828.9694       1.5625497
       6830.9192       1.5797781
       6832.8691       1.5399446
       6834.8189       1.4896438
       6836.7688       1.4939659
       6838.7186       1.4505608
       6840.6685       1.4340804
       6842.6184       1.4822029
       6844.5682       1.4748327
       6846.5181       1.4385381
       6848.4679       1.4445003
       6850.4178       1.4488200
       6852.3677       1.4383478
       6854.3176       1.4103501
       6856.2675       1.3916372
       6858.2173       1.4104593
       6860.1672       1.4038202
       6862.1170       1.3938196
       6864.0669       1.3576207
       6866.0167       1.3025393
       6867.9666       1.2612759
       6869.9164       1.2584246
       6871.8663       1.2973208
       6873.8162       1.2963501
       6875.7660       1.2846009
       6877.7159       1.2813693
       6879.6657       1.2821025
       6881.6156       1.3116314
       6883.5654       1.3070720
       6885.5153       1.2696742
       6887.4652       1.2923011
       6889.4150       1.3158511
       6891.3649       1.2548453
       6893.3147       1.2169442
       6895.2646       1.2255886
       6897.2144       1.2319918
       6899.1643       1.2396733
       6901.1142       1.2487386
       6903.0641       1.2473758
       6905.0140       1.2145250
       6906.9638       1.1857162
       6908.9137       1.2112129
       6910.8635       1.2214479
       6912.8134       1.2105180
       6914.7633       1.2223504
       6916.7131       1.2354193
       6918.6630       1.2033061
       6920.6128       1.1771297
       6922.5627       1.2137449
       6924.5125       1.2139652
       6926.4624       1.1990172
       6928.4123       1.2333490
       6930.3621       1.2539943
       6932.3120       1.2511063
       6934.2618       1.2651634
       6936.2117       1.3061290
       6938.1615       1.3297468
       6940.1114       1.3087084
       6942.0612       1.2913827
       6944.0111       1.2907846
       6945.9610       1.3101755
       6947.9108       1.3664464
       6949.8607       1.4035161
       6951.8106       1.3983525
       6953.7605       1.4025115
       6955.7103       1.4184976
       6957.6602       1.4308062
       6959.6101       1.4579254
       6961.5599       1.4663079
       6963.5098       1.4650173
       6965.4596       1.4869992
       6967.4095       1.4653457
       6969.3593       1.4419947
       6971.3092       1.4542259
       6973.2591       1.4235619
       6975.2089       1.4089251
       6977.1588       1.4676392
       6979.1086       1.4992731
       6981.0585       1.4831010
       6983.0083       1.4839536
       6984.9582       1.5033648
       6986.9081       1.5386881
       6988.8579       1.5749160
       6990.8078       1.5302478
       6992.7576       1.4754684
       6994.7075       1.4817793
       6996.6573       1.4961381
       6998.6072       1.4701623
       7000.5571       1.4789166
       7002.5070       1.5153877
       7004.4569       1.5059054
       7006.4067       1.4760242
       7008.3566       1.4625922
       7010.3064       1.4828500
       7012.2563       1.5044806
       7014.2062       1.5202433
       7016.1560       1.5501765
       7018.1059       1.5457375
       7020.0557       1.5092298
       7022.0056       1.4700332
       7023.9554       1.4637915
       7025.9053       1.4770025
       7027.8551       1.4634089
       7029.8050       1.4752605
       7031.7549       1.5185009
       7033.7047       1.5358183
       7035.6546       1.5231806
       7037.6044       1.4923817
       7039.5543       1.4638035
       7041.5041       1.4667213
       7043.4540       1.4589947
       7045.4039       1.4558246
       7047.3537       1.4708006
       7049.3036       1.4558547
       7051.2535       1.4325658
       7053.2034       1.4018216
       7055.1532       1.3933327
       7057.1031       1.4217803
       7059.0530       1.4239841
       7061.0028       1.3712550
       7062.9527       1.3404731
       7064.9025       1.3779652
       7066.8524       1.4134213
       7068.8022       1.3914045
       7070.7521       1.4236156
       7072.7020       1.4807270
       7074.6518       1.1904929
       7076.6017       1.0635430
       7078.5515       1.3656403
       7080.5014       1.4183371
       7082.4512       1.4212859
       7084.4011       1.4314855
       7086.3510       1.3728495
       7088.3008       1.3838527
       7090.2507       1.4022486
       7092.2005       1.3928810
       7094.1504       1.3871670
       7096.1002       1.3648123
       7098.0501       1.3415356
       7100.0000       1.3578521
       7101.9499       1.3845674
       7103.8998       1.3841491
       7105.8496       1.3584542
       7107.7995       1.3410367
       7109.7493       1.3278254
       7111.6992       1.3168601
       7113.6490       1.3475943
       7115.5989       1.3725700
       7117.5488       1.3560179
       7119.4986       1.3602309
       7121.4485       1.3704500
       7123.3983       1.4001839
       7125.3482       1.3703073
       7127.2980       1.3370750
       7129.2479       1.3287760
       7131.1978       1.3555822
       7133.1476       1.3868136
       7135.0975       1.3694161
       7137.0473       1.3636743
       7138.9972       1.3730642
       7140.9470       1.3639464
       7142.8969       1.3574827
       7144.8468       1.3675649
       7146.7966       1.3757546
       7148.7465       1.3968244
       7150.6964       1.3924066
       7152.6463       1.3566177
       7154.5961       1.3686415
       7156.5460       1.3759276
       7158.4959       1.3693475
       7160.4457       1.4026917
       7162.3956       1.4180666
       7164.3454       1.4171013
       7166.2953       1.4412416
       7168.2451       1.4610840
       7170.1950       1.4297452
       7172.1449       1.4159253
       7174.0947       1.4372543
       7176.0446       1.4398423
       7177.9944       1.4341322
       7179.9443       1.4754789
       7181.8941       1.4806242
       7183.8440       1.4511726
       7185.7939       1.4562687
       7187.7437       1.4479742
       7189.6936       1.4450663
       7191.6434       1.4348738
       7193.5933       1.4430108
       7195.5431       1.4600607
       7197.4930       1.4771909
       7199.4428       1.4667374
       7201.3928       1.4462893
       7203.3427       1.4138548
       7205.2925       1.4330665
       7207.2424       1.4505054
       7209.1922       1.4007777
       7211.1421       1.3857715
       7213.0919       1.4240204
       7215.0418       1.4671850
       7216.9917       1.5111165
       7218.9415       1.5033319
       7220.8914       1.4649724
       7222.8412       1.4783683
       7224.7911       1.4445406
       7226.7409       1.4263214
       7228.6908       1.4775418
       7230.6407       1.5102967
       7232.5905       1.5263692
       7234.5404       1.4903167
       7236.4902       1.5463257
       7238.4401       1.5942777
       7240.3899       1.5444496
       7242.3398       1.5270648
       7244.2897       1.5702113
       7246.2395       1.5666014
       7248.1894       1.5532382
       7250.1393       1.5883898
       7252.0892       1.6183512
       7254.0390       1.5874306
       7255.9889       1.5471499
       7257.9388       1.5416143
       7259.8886       1.5502827
       7261.8385       1.5419937
       7263.7883       1.6110229
       7265.7382       1.6765351
       7267.6880       1.6341398
       7269.6379       1.5978136
       7271.5878       1.6274668
       7273.5376       1.6696354
       7275.4875       1.6953923
       7277.4373       1.6699045
       7279.3872       1.6592247
       7281.3370       1.6674138
       7283.2869       1.6033144
       7285.2367       1.6115476
       7287.1866       1.6758661
       7289.1365       1.6843884
       7291.0863       1.6761547
       7293.0362       1.6917270
       7294.9860       1.6719855
       7296.9359       1.6361281
       7298.8857       1.6610267
       7300.8357       1.7182058
       7302.7856       1.7628413
       7304.7354       1.7234757
       7306.6853       1.6788186
       7308.6351       1.6661831
       7310.5850       1.7107826
       7312.5348       1.7228438
       7314.4847       1.6961395
       7316.4346       1.6754463
       7318.3844       1.7035462
       7320.3343       1.7142675
       7322.2841       1.6887954
       7324.2340       1.7221032
       7326.1838       1.7275765
       7328.1337       1.6643509
       7330.0836       1.6534784
       7332.0334       1.7210790
       7333.9833       1.7584450
       7335.9331       1.6817904
       7337.8830       1.6406314
       7339.8328       1.6871774
       7341.7827       1.6586612
       7343.7326       1.6274867
       7345.6824       1.6754110
       7347.6323       1.6855595
       7349.5822       1.6907569
       7351.5321       1.6970158
       7353.4819       1.6905591
       7355.4318       1.7037669
       7357.3816       1.7351434
       7359.3315       1.7005228
       7361.2814       1.6813090
       7363.2312       1.6821713
       7365.1811       1.6777024
       7367.1309       1.6794262
       7369.0808       1.6792176
       7371.0306       1.6870075
       7372.9805       1.7021306
       7374.9304       1.6867117
       7376.8802       1.6356052
       7378.8301       1.6288829
       7380.7799       1.5963689
       7382.7298       1.5881412
       7384.6796       1.6186010
       7386.6295       1.6298913
       7388.5794       1.6030771
       7390.5292       1.6027044
       7392.4791       1.6153505
       7394.4289       1.6627458
       7396.3788       1.6830993
       7398.3286       1.6719083
       7400.2786       1.6801996
       7402.2285       1.7122442
       7404.1783       1.7337073
       7406.1282       1.7235898
       7408.0780       1.7226570
       7410.0279       1.7132986
       7411.9777       1.7121466
       7413.9276       1.7190012
       7415.8775       1.7027048
       7417.8273       1.6418244
       7419.7772       1.6496471
       7421.7270       1.7050570
       7423.6769       1.7191455
       7425.6267       1.6798086
       7427.5766       1.6256163
       7429.5265       1.6103382
       7431.4763       1.5777588
       7433.4262       1.6675729
       7435.3760       1.6977859
       7437.3259       1.6505091
       7439.2757       1.6578120
       7441.2256       1.6566367
       7443.1754       1.6413280
       7445.1253       1.6563573
       7447.0752       1.6873891
       7449.0250       1.6350709
       7450.9750       1.6481665
       7452.9248       1.6607758
       7454.8747       1.6524786
       7456.8245       1.6364629
       7458.7744       1.6297334
       7460.7243       1.6104188
       7462.6741       1.6091049
       7464.6240       1.6060239
       7466.5738       1.6183943
       7468.5237       1.6369852
       7470.4735       1.6415693
       7472.4234       1.6255840
       7474.3733       1.6377984
       7476.3231       1.6390866
       7478.2730       1.6295331
       7480.2228       1.6512866
       7482.1727       1.6368384
       7484.1225       1.5889353
       7486.0724       1.6050034
       7488.0223       1.6354781
       7489.9721       1.6307536
       7491.9220       1.5991368
       7493.8718       1.5893122
       7495.8217       1.6127652
       7497.7715       1.5729967
       7499.7215       1.4974383
       7501.6714       1.4733055
       7503.6212       1.4531231
       7505.5711       1.4387735
       7507.5209       1.4442568
       7509.4708       1.4500812
       7511.4206       1.4399376
       7513.3705       1.4154985
       7515.3204       1.3918943
       7517.2702       1.3388429
       7519.2201       1.3460197
       7521.1699       1.3676426
       7523.1198       1.3568392
       7525.0696       1.3390075
       7527.0195       1.3373413
       7528.9693       1.3475698
       7530.9192       1.3484935
       7532.8691       1.3389428
       7534.8189       1.2932696
       7536.7688       1.3025261
       7538.7186       1.3323991
       7540.6685       1.2911005
       7542.6183       1.2735877
       7544.5682       1.2620647
       7546.5181       1.2476087
       7548.4679       1.2075698
       7550.4179       1.1643634
       7552.3677       1.1828034
       7554.3176       1.2056725
       7556.2674       1.2004168
       7558.2173       1.1880103
       7560.1672       1.1613727
       7562.1170       1.1243235
       7564.0669       1.0957497
       7566.0167       1.1149440
       7567.9666       1.1288917
       7569.9164       1.1181897
       7571.8663       1.1047312
       7573.8162       1.0849004
       7575.7660       1.0734425
       7577.7159       1.0783256
       7579.6657       1.0697374
       7581.6156       1.0386976
       7583.5654       1.0668985
       7585.5153       1.0879004
       7587.4652       1.0537452
       7589.4150       1.0040201
       7591.3649       1.0051086
       7593.3147       1.0386075
       7595.2646       1.0587064
       7597.2144      0.93145525
       7599.1644      0.82224566
       7601.1143      0.82716101
       7603.0641      0.76214224
       7605.0140      0.77656406
       7606.9638      0.78054196
       7608.9137      0.77005041
       7610.8635      0.80144626
       7612.8134      0.81208807
       7614.7632      0.79975080
       7616.7131      0.82880235
       7618.6630      0.86790544
       7620.6128      0.82291228
       7622.5627      0.73862064
       7624.5125      0.76424694
       7626.4624      0.80633861
       7628.4122      0.77230024
       7630.3621      0.78548890
       7632.3120      0.76471454
       7634.2618      0.78471422
       7636.2117      0.79187018
       7638.1615      0.77787775
       7640.1114      0.78072315
       7642.0612      0.80025274
       7644.0111      0.83474833
       7645.9610      0.84454423
       7647.9108      0.82199371
       7649.8608      0.82259029
       7651.8106      0.79685551
       7653.7605      0.80395913
       7655.7103      0.84532219
       7657.6602      0.86591941
       7659.6101      0.84933329
       7661.5599      0.85358828
       7663.5098      0.90954196
       7665.4596      0.94076562
       7667.4095      0.93707818
       7669.3593      0.95736176
       7671.3092      0.99922502
       7673.2591       1.0122590
       7675.2089       1.0468873
       7677.1588       1.0901958
       7679.1086       1.0964540
       7681.0585       1.1386459
       7683.0083       1.1925218
       7684.9582       1.2102978
       7686.9081       1.2191406
       7688.8579       1.2592229
       7690.8078       1.2994633
       7692.7576       1.3383363
       7694.7075       1.3654870
       7696.6573       1.3782070
       7698.6073       1.4215306
       7700.5571       1.4300857
       7702.5070       1.4524899
       7704.4569       1.5139744
       7706.4067       1.4721445
       7708.3566       1.4910240
       7710.3064       1.5826318
       7712.2563       1.6009215
       7714.2061       1.6261477
       7716.1560       1.7105364
       7718.1059       1.7081890
       7720.0557       1.6702564
       7722.0056       1.7594520
       7723.9554       1.8403091
       7725.9053       1.8207026
       7727.8551       1.8409390
       7729.8050       1.8775979
       7731.7549       1.8984013
       7733.7047       1.9480673
       7735.6546       2.0018888
       7737.6044       1.9488888
       7739.5543       1.9400141
       7741.5041       1.9982932
       7743.4540       2.0078423
       7745.4039       1.9542563
       7747.3537       1.9424803
       7749.3037       1.9988705
       7751.2535       2.0440555
       7753.2034       2.0354836
       7755.1532       2.0227849
       7757.1031       2.0279334
       7759.0530       2.0622203
       7761.0028       2.1115241
       7762.9527       2.0997977
       7764.9025       2.1151428
       7766.8524       2.2473679
       7768.8022       2.2523952
       7770.7521       2.2097824
       7772.7019       2.2402925
       7774.6518       2.3010881
       7776.6017       2.2875168
       7778.5515       2.2737300
       7780.5014       2.3042436
       7782.4512       2.2395136
       7784.4011       2.1980946
       7786.3509       2.1757965
       7788.3008       2.1460803
       7790.2507       2.1474371
       7792.2005       2.1378562
       7794.1504       2.1142325
       7796.1002       2.0950894
       7798.0502       2.0535970
       7800.0000       2.0270088
       7801.9499       2.0507648
       7803.8998       2.1053629
       7805.8496       2.1202314
       7807.7995       2.1217957
       7809.7493       2.1413374
       7811.6992       2.1176062
       7813.6490       2.1048141
       7815.5989       2.0797937
       7817.5488       2.1409941
       7819.4986       2.1465309
       7821.4485       2.0316210
       7823.3983       2.0382323
       7825.3482       2.0559933
       7827.2980       2.0422201
       7829.2479       2.0795581
       7831.1978       2.1046882
       7833.1476       2.0586843
       7835.0975       2.0382867
       7837.0473       1.9986719
       7838.9972       1.8906064
       7840.9470       1.8906604
       7842.8969       1.9368248
       7844.8468       1.9415611
       7846.7966       1.9775198
       7848.7466       1.9965390
       7850.6964       1.9430499
       7852.6463       1.9034969
       7854.5961       1.9337623
       7856.5460       1.9750682
       7858.4958       2.0146730
       7860.4457       2.0256059
       7862.3956       2.0273771
       7864.3454       2.0367467
       7866.2953       1.9823472
       7868.2451       1.9674526
       7870.1950       2.0037889
       7872.1448       2.0343335
       7874.0947       2.0344105
       7876.0446       2.0546017
       7877.9944       2.0502074
       7879.9443       1.9712209
       7881.8941       1.9245226
       7883.8440       1.8794440
       7885.7938       1.8761095
       7887.7437       1.8916105
       7889.6936       1.9182550
       7891.6434       1.9384079
       7893.5933       1.9373015
       7895.5431       1.9535633
       7897.4931       1.8919905
       7899.4429       1.8624156
       7901.3928       1.9083438
       7903.3427       1.9056803
       7905.2925       1.8573831
       7907.2424       1.9043630
       7909.1922       2.0232182
       7911.1421       2.0283027
       7913.0919       1.9494812
       7915.0418       1.9594152
       7916.9917       2.0090110
       7918.9415       2.0293491
       7920.8914       2.0404480
       7922.8412       2.0259762
       7924.7911       1.9712164
       7926.7409       1.9781553
       7928.6908       1.9930376
       7930.6407       1.9860581
       7932.5905       1.9582410
       7934.5404       1.9112529
       7936.4902       1.8858695
       7938.4401       1.8772788
       7940.3899       1.8589618
       7942.3398       1.8393084
       7944.2896       1.8733677
       7946.2395       1.8391577
       7948.1895       1.7632203
       7950.1393       1.7827933
       7952.0892       1.7672462
       7954.0390       1.7769321
       7955.9889       1.8305484
       7957.9387       1.8386080
       7959.8886       1.7950164
       7961.8385       1.8617711
       7963.7883       1.9527984
       7965.7382       1.8814791
       7967.6880       1.7996792
       7969.6379       1.7467358
       7971.5877       1.7968866
       7973.5376       1.8777109
       7975.4875       1.8285294
       7977.4373       1.7501199
       7979.3872       1.7712489
       7981.3370       1.7893833
       7983.2869       1.7426617
       7985.2367       1.7072830
       7987.1866       1.7229648
       7989.1365       1.7378354
       7991.0863       1.6963196
       7993.0362       1.6623214
       7994.9860       1.6711829
       7996.9360       1.6569843
       7998.8858       1.6178857
       8000.8357       1.6308850
       8002.7856       1.6526904
       8004.7354       1.6514199
       8006.6853       1.6162485
       8008.6351       1.5729880
       8010.5850       1.6073432
       8012.5348       1.6718286
       8014.4847       1.7113719
       8016.4346       1.6330608
       8018.3844       1.5834410
       8020.3343       1.6420244
       8022.2841       1.6575859
       8024.2340       1.5970515
       8026.1838       1.5809215
       8028.1337       1.6440604
       8030.0835       1.6485701
       8032.0334       1.5835173
       8033.9833       1.5971837
       8035.9331       1.5905837
       8037.8830       1.5580870
       8039.8328       1.5814943
       8041.7827       1.5669705
       8043.7325       1.4953550
       8045.6824       1.4773685
       8047.6324       1.5186187
       8049.5822       1.5197022
       8051.5321       1.4450049
       8053.4819       1.4224892
       8055.4318       1.4792124
       8057.3816       1.5060731
       8059.3315       1.4681282
       8061.2814       1.4688195
       8063.2312       1.5215973
       8065.1811       1.4943126
       8067.1309       1.4989562
       8069.0808       1.5746951
       8071.0306       1.5423120
       8072.9805       1.5111370
       8074.9304       1.5436907
       8076.8802       1.4948415
       8078.8301       1.4379406
       8080.7799       1.4653306
       8082.7298       1.4798356
       8084.6796       1.4268944
       8086.6295       1.4142841
       8088.5794       1.4131743
       8090.5292       1.3589437
       8092.4791       1.3470483
       8094.4289       1.3841597
       8096.3789       1.3331573
       8098.3287       1.2679055
       8100.2786       1.2614563
       8102.2285       1.2267969
       8104.1783       1.2110175
       8106.1282       1.2657256
       8108.0780       1.3056370
       8110.0279       1.2730368
       8111.9777       1.2262638
       8113.9276       1.2240750
       8115.8774       1.2898481
       8117.8273       1.2933793
       8119.7772       1.2490411
       8121.7270       1.2988394
       8123.6769       1.3565454
       8125.6267       1.3597329
       8127.5766       1.3281175
       8129.5264       1.2873824
       8131.4763       1.2812337
       8133.4262       1.2845418
       8135.3760       1.2734262
       8137.3259       1.2644744
       8139.2757       1.2561699
       8141.2256       1.2300010
       8143.1754       1.1892570
       8145.1253       1.1785060
       8147.0753       1.1845812
       8149.0251       1.1969763
       8150.9750       1.2051392
       8152.9248       1.2051135
       8154.8747       1.1948373
       8156.8245       1.1882534
       8158.7744       1.2257460
       8160.7243       1.2496501
       8162.6741       1.1994677
       8164.6240       1.1840272
       8166.5738       1.2203046
       8168.5237       1.2464432
       8170.4735       1.2600296
       8172.4234       1.2548093
       8174.3733       1.2361093
       8176.3231       1.2541609
       8178.2730       1.1943710
       8180.2228       1.0532103
       8182.1727       1.0350050
       8184.1225       1.0486331
       8186.0724       1.0239624
       8188.0222      0.99697292
       8189.9721      0.93183690
       8191.9220      0.86766076
       8193.8718      0.81482279
       8195.8218      0.79769272
       8197.7716      0.77702796
       8199.7215      0.72559756
       8201.6713      0.66352427
       8203.6212      0.62059784
       8205.5711      0.61231619
       8207.5209      0.63254541
       8209.4708      0.62553674
       8211.4206      0.58512044
       8213.3705      0.50927728
       8215.3203      0.50068909
       8217.2702      0.51652312
       8219.2201      0.50684893
       8221.1699      0.49570739
       8223.1198      0.50425786
       8225.0696      0.46327919
       8227.0195      0.48560065
       8228.9693      0.46811262
       8230.9192      0.45295009
       8232.8691      0.43488422
       8234.8189      0.43809697
       8236.7688      0.43214700
       8238.7186      0.40550265
       8240.6685      0.38215759
       8242.6183      0.36815488
       8244.5682      0.35884193
       8246.5182      0.36634281
       8248.4680      0.36878440
       8250.4179      0.33066291
       8252.3677      0.33558050
       8254.3176      0.36205178
       8256.2674      0.34952730
       8258.2173      0.35126451
       8260.1672      0.31638244
       8262.1170      0.30179149
       8264.0669      0.33594117
       8266.0167      0.35363346
       8267.9666      0.33763105
       8269.9164      0.30778408
       8271.8663      0.32413489
       8273.8161      0.32929137
       8275.7660      0.30352253
       8277.7159      0.33706972
       8279.6657      0.34472549
       8281.6156      0.32115364
       8283.5654      0.33876806
       8285.5153      0.32634726
       8287.4651      0.28200647
       8289.4150      0.28733948
       8291.3649      0.32233959
       8293.3147      0.31694329
       8295.2646      0.33652768
       8297.2145      0.34957772
       8299.1644      0.29291731
       8301.1142      0.32547206
       8303.0641      0.32820398
       8305.0140      0.31127876
       8306.9638      0.31097290
       8308.9137      0.30477718
       8310.8635      0.33486554
       8312.8134      0.35978919
       8314.7632      0.35005230
       8316.7131      0.35767779
       8318.6630      0.35205373
       8320.6128      0.39047638
       8322.5627      0.38536981
       8324.5125      0.34742719
       8326.4624      0.37207481
       8328.4122      0.38977826
       8330.3621      0.36409858
       8332.3120      0.39475784
       8334.2618      0.37008920
       8336.2117      0.39815822
       8338.1615      0.41335773
       8340.1114      0.41638282
       8342.0612      0.43918040
       8344.0111      0.39097524
       8345.9611      0.38027316
       8347.9109      0.38114718
       8349.8608      0.33291203
       8351.8106      0.37702134
       8353.7605      0.36656776
       8355.7103      0.35569590
       8357.6602      0.39525831
       8359.6100      0.39543074
       8361.5599      0.34681699
       8363.5098      0.36391997
       8365.4596      0.40329063
       8367.4095      0.38398081
       8369.3593      0.39517373
       8371.3092      0.42034173
       8373.2590      0.42880937
       8375.2089      0.41678622
       8377.1588      0.41788265
       8379.1086      0.35592711
       8381.0585      0.37210730
       8383.0083      0.36936197
       8384.9582      0.40343568
       8386.9080      0.39818186
       8388.8579      0.40427452
       8390.8078      0.40655965
       8392.7576      0.38185230
       8394.7075      0.36216179
       8396.6574      0.45880342
       8398.6073      0.42887953
       8400.5571      0.39989287
       8402.5070      0.40430346
       8404.4569      0.43385100
       8406.4067      0.44059345
       8408.3566      0.41775462
       8410.3064      0.41916615
       8412.2563      0.44329983
       8414.2061      0.43456885
       8416.1560      0.42128086
       8418.1059      0.46152663
       8420.0557      0.49161470
       8422.0056      0.48529503
       8423.9554      0.50338393
       8425.9053      0.52852297
       8427.8551      0.51868653
       8429.8050      0.49548209
       8431.7549      0.52544773
       8433.7047      0.53341448
       8435.6546      0.55721408
       8437.6044      0.60987872
       8439.5543      0.61719596
       8441.5041      0.59691739
       8443.4540      0.62862891
       8445.4039      0.61222869
       8447.3538      0.62068117
       8449.3037      0.65073019
       8451.2535      0.69893348
       8453.2034      0.74772447
       8455.1532      0.75212610
       8457.1031      0.74262118
       8459.0529      0.73936689
       8461.0028      0.75953007
       8462.9527      0.76427639
       8464.9025      0.76197481
       8466.8524      0.80110228
       8468.8022      0.84050095
       8470.7521      0.86625355
       8472.7019      0.88630241
       8474.6518      0.87691557
       8476.6017      0.89835578
       8478.5515      0.95638657
       8480.5014      0.93274212
       8482.4512      0.95849025
       8484.4011       1.0124031
       8486.3509       1.0171168
       8488.3008       1.0504965
       8490.2507       1.0459253
       8492.2005       1.0757996
       8494.1504       1.0714582
       8496.1003       1.0948442
       8498.0502       1.0833032
       8500.0000       1.1764644
